time,seconds_elapsed,z,y,x
1742324422348709600,0.024709716796875,-0.14106442120373247,-0.041378889092802996,-0.07265592475757002
1742324422358693600,0.034693603515625,-0.04808569325506687,-0.06389496454447507,-0.09234660405758768
1742324422368678700,0.0446787109375,0.07020283251702784,-0.054286009199917315,-0.07660184937175363
1742324422378663400,0.054663330078125,0.20239596500098705,-0.06280336991548538,-0.037777795860916376
1742324422388648400,0.0646484375,0.26792963666319847,-0.06531710630208254,0.013718253826908767
1742324422398633500,0.074633544921875,0.33113749572634693,-0.04726882391422987,0.02815086646825075
1742324422408617500,0.084617431640625,0.35889001052677627,-0.05809884548634291,-0.010584705041535199
1742324422418602500,0.0946025390625,0.33385610703527924,-0.0635609102845192,-0.015424071364104747
1742324422428587800,0.104587890625,0.3331967663437128,-0.07764175034612417,-0.03380969594754279
1742324422438572500,0.114572509765625,0.28912147777378555,-0.10087269606888294,-0.06780976336803286
1742324422448556500,0.124556640625,0.2042097364246845,-0.1188993511468172,-0.11479330406747758
1742324422458541600,0.13454150390625,0.15382862570881842,-0.10368921479433775,-0.1609660763733089
1742324422468526600,0.144526611328125,0.16708499764502047,-0.0729541770517826,-0.16409692174494264
1742324422478511600,0.15451171875,0.1935971569955349,-0.05246551577448844,-0.15373992451205848
1742324422488495600,0.16449560546875,0.2655950562357902,-0.04459259044229984,-0.15042367610353977
1742324422498480600,0.174480712890625,0.2621072141200304,-0.026623803031444546,-0.09937858505360782
1742324422508465400,0.18446533203125,0.3100941231757402,-0.0635237931445241,-0.06152542240153998
1742324422518450400,0.194450439453125,0.33530162966847415,-0.11424071168601513,0.00899798383936286
1742324422528434400,0.204434326171875,0.2791068642377853,-0.11719108592420815,0.053877318801172074
1742324422538419500,0.21441943359375,0.2157651496618986,-0.08234042955636978,0.09618899523206055
1742324422548404500,0.224404541015625,0.20704875924289226,-0.0627002018019557,0.08407236791551112
1742324422558389800,0.2343896484375,0.18129414026141166,-0.0807405931442976,0.09691223147269337
1742324422568373800,0.244373779296875,0.12489186955988406,-0.052337797741591925,0.11445895754657685
1742324422578358500,0.254358642578125,0.07346212657392025,-0.021984452793002127,0.12170987852290271
1742324422588343600,0.264343505859375,0.057851884987950325,-0.03427110291421413,0.14912044801786542
1742324422598328600,0.27432861328125,0.05223755223751068,-0.032573943607509134,0.16905001410767434
1742324422608313600,0.284313720703125,-0.026027006182074545,-0.03715717974454164,0.20045122414138167
1742324422618297600,0.294297607421875,-0.10815350072681904,-0.025757833851873874,0.20479126263968644
1742324422628282600,0.30428271484375,-0.1867471449702978,-0.0011614449948072433,0.1978043263617903
1742324422638267400,0.314267333984375,-0.2563023272335529,0.02786620430797338,0.17199647935573012
1742324422648252400,0.32425244140625,-0.253497206684947,0.05805412956178188,0.14545202517081052
1742324422658236400,0.334236328125,-0.15719371822774408,0.08967939414232969,0.08658369314931333
1742324422668221400,0.344221435546875,-0.03823240776062011,0.09747107093185185,0.03498085861876607
1742324422678206700,0.354206787109375,0.036544893065094945,0.08076865019500255,-0.03586538636833429
1742324422688191700,0.364191650390625,0.09227028741836547,0.05443126288950443,-0.14752831998821347
1742324422698175700,0.37417578125,0.16447627645134924,-0.006507774458825588,-0.2304989737395197
1742324422708160500,0.384160400390625,0.19839783527553081,-0.009680267015099525,-0.2659177488515153
1742324422718145500,0.3941455078125,0.2582289113819599,0.02334317392557859,-0.2694286065166816
1742324422728130600,0.404130615234375,0.23971534956991672,0.052038522534072394,-0.28759638709835705
1742324422738115600,0.414115478515625,0.15207096838653086,0.05791705917865038,-0.28415895999558266
1742324422748099600,0.424099609375,-0.04176993423700332,0.08562047414034604,-0.18220055104922503
1742324422758084600,0.434084716796875,-0.16626666699945924,0.11247107166498899,-0.04048493592776358
1742324422768069600,0.444069580078125,-0.22151333792507646,0.1756196017563343,0.044100751804746686
1742324422778054400,0.454054443359375,-0.21301789678037164,0.2058399679750204,0.012435849333554506
1742324422788038400,0.464038330078125,-0.20030863733291626,0.20041472805589436,-0.09538615441657602
1742324422798023400,0.4740234375,-0.24597031831145286,0.20847937656790017,-0.22252755646891892
1742324422808008700,0.4840087890625,-0.2491454412162304,0.20395751522928476,-0.2997886734670028
1742324422817993700,0.49399365234375,-0.22091771011948586,0.18616174629777668,-0.34557361549902704
1742324422827977700,0.503977783203125,-0.22439853797256945,0.22050094601213932,-0.2957445126427337
1742324422837962800,0.513962646484375,-0.20470599550902843,0.24711393538862467,-0.21817221080362795
1742324422847947500,0.523947509765625,-0.17586919260323047,0.24292554378807543,-0.15704499393943697
1742324422857932500,0.5339326171875,-0.1460831261485815,0.19995412480682134,-0.14600260825827716
1742324422867916500,0.54391650390625,-0.12790332633554935,0.19866671534478664,-0.16721509029809384
1742324422877901600,0.553901611328125,-0.08082534881830215,0.17614157980382442,-0.18557839345186947
1742324422887886600,0.563886474609375,-0.01749707824587822,0.14579466459602117,-0.2624406473254785
1742324422897871600,0.57387158203125,0.030488077244162557,0.1348962539628148,-0.28814919867552813
1742324422907856400,0.5838564453125,0.03164309249818325,0.11473901659697294,-0.29558121183980257
1742324422917840400,0.59384033203125,-0.002093172886967659,0.09986176546067,-0.26122020215243097
1742324422927825400,0.603825439453125,-0.03185410490036011,0.10534604209065437,-0.20967269627200438
1742324422937810700,0.613810791015625,-0.06045183835327625,0.10211977352052927,-0.10581550449961796
1742324422947795700,0.623795654296875,-0.08229717493653296,0.07685907553583383,-0.026352858869265763
1742324422957779700,0.63377978515625,-0.09728782331943511,0.051931847289204594,0.0557188002157025
1742324422967764700,0.6437646484375,-0.0905611454129219,0.023215163631737232,0.09113401339743286
1742324422977749500,0.65374951171875,-0.09521218608915805,0.013872750268876553,0.11381804756084456
1742324422987734500,0.663734619140625,-0.09302198256850241,0.0017614567145705221,0.08742860127454623
1742324422997719600,0.673719482421875,-0.07576105116605758,-0.01574380483776331,0.042487909780628975
1742324423007703600,0.68370361328125,-0.06468260779082775,-0.009896247853338718,-0.005475892394129186
1742324423017688600,0.6936884765625,-0.015849311038851736,-0.028221301355957983,-0.04586021749163046
1742324423027673600,0.703673583984375,0.05489771135747432,-0.05348872134238481,-0.03896525207981467
1742324423037658400,0.713658447265625,0.10635960304737091,-0.059579439432919025,-0.038605624987185
1742324423047642400,0.723642333984375,0.114276367521286,-0.056305824589729304,0.00828901358610019
1742324423057627600,0.733627685546875,0.10126666382253169,-0.04756196164190769,0.040858226219564676
1742324423067612700,0.74361279296875,0.13234861530661582,-0.03363835796862841,0.01414047956066206
1742324423077597700,0.75359765625,0.14558160636723042,-0.004676175117492676,-0.0035591537863016126
1742324423087581700,0.763581787109375,0.13268003921806812,0.01625146209895611,-0.015755111683066935
1742324423097566700,0.773566650390625,0.10162205313146114,0.009173194275796413,0.014768530064821242
1742324423107551500,0.783551513671875,0.08635960206985473,-0.004491173939406872,0.04366468020873144
1742324423117536500,0.79353662109375,0.0706926618605852,-0.018402502653002736,0.04736002759533003
1742324423127520500,0.8035205078125,0.05394961685240268,-0.03747808226197958,0.05445188555242494
1742324423137506600,0.813506591796875,0.027201310658454894,-0.028723113398253917,0.04943933635372668
1742324423147491300,0.8234912109375,-0.020450082832574844,-0.024497020135819912,0.02830499758403748
1742324423157476600,0.8334765625,-0.032924949002265926,-0.02478372812271118,0.01748094909498468
1742324423167461600,0.843461669921875,-0.020247838258743284,-0.00029401451051235195,0.026311832739133387
1742324423177445600,0.853445556640625,-0.05861410153210163,0.02388619476109743,0.022860632839333265
1742324423187430700,0.8634306640625,-0.08209609940648079,0.03574439033716917,0.05767809932362288
1742324423197415700,0.873415771484375,-0.0930839418888092,0.059817924363911146,0.061261181974783536
1742324423207400400,0.883400390625,-0.09689327104389667,0.044964930886030194,0.046874362970236685
1742324423217384700,0.893384765625,-0.07985445795953273,0.042133214591443535,0.0387656013218686
1742324423227369500,0.903369384765625,-0.07843757689893245,0.01910685153007507,0.0414784587434493
1742324423237354500,0.9133544921875,-0.06305588337182998,0.0246259072124958,0.04541145081082359
1742324423247339500,0.923339599609375,-0.06610182693898678,0.03444499817639589,0.04870941464398056
1742324423257323500,0.933323486328125,-0.041516836258769035,-0.01200315700471401,0.06290454700132832
1742324423267308500,0.94330859375,-0.02925356701314449,-0.014194237308204172,0.07625226874910294
1742324423277293600,0.95329345703125,0.008030161720514297,-0.0028276246413588522,0.054294923158735034
1742324423287278600,0.963278564453125,0.026008301481604573,0.008967442570626736,0.014232377361506223
1742324423297262600,0.9732626953125,0.05459200640916824,0.0014607202023267745,-0.0013257504447363316
1742324423307247600,0.98324755859375,0.10306991385221481,0.02473579732775688,-0.004307122609391808
1742324423317232600,0.993232666015625,0.12317512876987456,0.02673924610465765,-0.008584982591681181
1742324423327217700,1.0032177734375,0.1052484269350767,0.03174275348037481,-0.026327541764918715
1742324423337202400,1.013202392578125,0.13189444179832935,0.03569792084693908,-0.06420191160179674
1742324423347186700,1.023186767578125,0.14116495896875858,0.02378682603985071,-0.07219325741557404
1742324423357171500,1.03317138671875,0.125878542509675,0.04273673344254494,-0.09245315143829211
1742324423367156500,1.043156494140625,0.09393383671641349,0.018138883280754088,-0.08962468654671683
1742324423377141500,1.0531416015625,0.07445113761126995,0.0002408230185508728,-0.11955302928257733
1742324423387125500,1.06312548828125,0.09358721523582934,0.0019274609312415123,-0.10203777605919166
1742324423397110500,1.073110595703125,0.09182312817275523,0.03206979347765446,-0.07297416039388627
1742324423407095600,1.083095458984375,0.027059271839261052,0.04454378286451101,-0.045428036619443446
1742324423417080600,1.09308056640625,-0.01583177538216114,0.06248129835426807,-0.02717900749510154
1742324423427064600,1.103064697265625,-0.039517771396040915,0.08539835582226514,-0.03749242131458595
1742324423437049600,1.113049560546875,-0.10036650011241435,0.10935323190540075,-0.039449528465420006
1742324423447034600,1.12303466796875,-0.11395721856951713,0.12891542598754166,-0.010171210603509097
1742324423457019600,1.13301953125,-0.128968909740448,0.14373773206621407,-0.001518186010606587
1742324423467003600,1.143003662109375,-0.10093991608619689,0.1262327627748251,0.002185755674401298
1742324423476988700,1.15298876953125,-0.08371873217225075,0.09401654656380415,-0.009635688087856396
1742324423486973400,1.162973388671875,-0.0422720385402441,0.07501666253954171,0.011002610793197526
1742324423496958500,1.17295849609375,0.025970307558774948,0.058682490593194955,-0.0072043236219324165
1742324423506943500,1.182943603515625,0.047291328006982804,0.025298107385635375,-0.020811582221882417
1742324423516927500,1.192927490234375,0.06393383525013924,-0.0011427402943372726,-0.038432871369319034
1742324423526912500,1.20291259765625,0.05555003778636455,-0.012112170337140559,-0.03767855500383303
1742324423536897500,1.2128974609375,0.014610709154605864,0.007904197253286838,-0.004911947501590475
1742324423546882600,1.222882568359375,-0.03982581443190574,0.008513561323285103,0.009668065120652318
1742324423556866600,1.232866455078125,-0.04452537042498588,0.0140688573628664,0.02270754290316254
1742324423566851600,1.2428515625,-0.031017069554328917,0.03659107029438018,0.0630931466422975
1742324423576836600,1.252836669921875,0.003992284506559371,0.06291121420413255,0.07264909315798432
1742324423586821600,1.262821533203125,0.0118032505184412,0.026007424698770043,0.05867088235379196
1742324423596805600,1.2728056640625,0.03223755125999451,0.002775309932231903,0.0033979079431388525
1742324423606790700,1.282790771484375,0.06553191809654235,0.025049685582518577,-0.013932134039606898
1742324423616775400,1.292775390625,0.12609423108696938,0.03256576030105352,-0.050467839151248334
1742324423626760400,1.302760498046875,0.12842179725170136,0.05057078806906938,-0.08808242554077877
1742324423636744400,1.312744384765625,0.08905132537186146,0.04782207388281822,-0.14833654936486854
1742324423646729500,1.3227294921875,0.04026595941483974,0.0636541415259242,-0.15689440648760647
1742324423656714800,1.33271484375,-0.016099486407637593,0.08320464517027139,-0.11112570320433005
1742324423666699500,1.342699462890625,-0.03688625384867191,0.09764993463009596,-0.0577602429154329
1742324423676683800,1.352683837890625,-0.020851064848899842,0.11238280885964631,-0.005820860773744062
1742324423686668500,1.36266845703125,0.017784663015604017,0.12542232317477464,0.03274511718964204
1742324423696653600,1.372653564453125,0.0687584789276123,0.12570201689898966,0.05384502396676689
1742324423706638600,1.382638671875,0.09232523247599601,0.0923258169978857,0.043183308166265484
1742324423716623600,1.39262353515625,0.09817512754797934,0.06340718102753162,0.005316920706443488
1742324423726607600,1.402607666015625,0.14050854088664055,0.03396189083456993,-0.02437657209392637
1742324423736592600,1.412592529296875,0.1594721845537424,0.019692250202596188,-0.010405713479127734
1742324423746577400,1.422577392578125,0.13212006724774836,0.011105039121210575,0.014853294871980324
1742324423756562400,1.4325625,0.07125438739657401,0.010418810422718524,0.014836590332351624
1742324423766546400,1.44254638671875,0.04767302080094814,0.012503215481340884,0.04268935063686222
1742324423776531500,1.452531494140625,0.015248422536253928,0.03014291706830263,0.06859414607821963
1742324423786516700,1.462516845703125,-0.004287468060851097,0.04338175334781408,0.06092250633863732
1742324423796501800,1.472501708984375,-0.006486439409852027,0.056367783910036086,0.04028891103216447
1742324423806485800,1.48248583984375,-0.007324059277772903,0.048104690216481685,0.007418916220683604
1742324423816470500,1.492470458984375,-0.020317980885505675,0.023779519516229627,-0.018088157740514723
1742324423826455600,1.50245556640625,0.001838321343064308,0.019411387434601784,0.006235204595141112
1742324423836440600,1.512440673828125,0.018367431339621543,-0.00990092402845621,0.009273750307131559
1742324423846424600,1.522424560546875,0.012768296158313751,-0.013350187699496745,0.014043887318391353
1742324423856409600,1.53240966796875,-0.004603109881281852,-0.019741642302274702,0.010805307255964725
1742324423866394600,1.54239453125,-0.01658639314174652,-0.031529110729694367,-0.00999796379529871
1742324423876379400,1.55237939453125,-0.023442834907770157,-0.021570611295104025,0.0003621661095879972
1742324423886363400,1.56236328125,-0.022552608069777488,0.0032400048345327375,0.005425358650134876
1742324423896348400,1.572348388671875,-0.049234863290190695,0.010004092141985893,-0.008181845150887965
1742324423906333700,1.582333740234375,-0.05606909322440624,0.024955285297334193,-0.013553573917644097
1742324423916318700,1.592318603515625,-0.08514905723631382,0.04101590099930763,-0.006759009273536503
1742324423926302700,1.602302734375,-0.08562661162018775,0.0398430578276515,-0.02219449708079919
1742324423936287700,1.612287841796875,-0.05927051961421966,0.022416414469480513,-0.050404911716561765
1742324423946272500,1.6222724609375,-0.026451369073987006,0.007474573664367198,-0.03159812084529549
1742324423956257500,1.632257568359375,0.023644494959712027,-0.028694471825659273,-0.02811314654005691
1742324423966242600,1.64224267578125,0.06192191090583801,-0.046892976339161396,-0.027732257463689892
1742324423976226600,1.6522265625,0.10936521460413932,-0.03984218104481697,-0.04749048557458445
1742324423986211600,1.662211669921875,0.11943126606643199,-0.05721592517197132,-0.030484825841151177
1742324423996196600,1.672196533203125,0.1064338373273611,-0.04940057524591684,-0.03847708497038111
1742324424006181400,1.682181396484375,0.09953004928827285,-0.024760347247123716,-0.0406700101710856
1742324424016165400,1.692165283203125,0.08543079678714274,-0.0031251462832093237,-0.0448535429334268
1742324424026150400,1.702150390625,0.044670331853628155,0.02076134073883295,-0.029033001331333068
1742324424036135700,1.7121357421875,0.010125672695040703,0.04460544992387294,-0.01106014966671355
1742324424046120700,1.72212060546875,-0.051909635457396505,0.05819032316207885,0.0053202817073091865
1742324424056104700,1.732104736328125,-0.06622633010149001,0.05730506476014852,-0.012739015264902263
1742324424066089700,1.74208984375,-0.07509118908047675,0.07008008292019367,0.006829681623261421
1742324424076074500,1.752074462890625,-0.0912713395088911,0.07670943793207406,0.018898268547002224
1742324424086059500,1.7620595703125,-0.092892218708992,0.06083791506141424,0.0010671360411681234
1742324424096043500,1.77204345703125,-0.07361001061201095,0.07365531105846167,-0.01991572022754699
1742324424106028500,1.782028564453125,-0.04403261847198009,0.07814327012747525,-0.03211586110908538
1742324424116013600,1.792013671875,-0.007618073788285255,0.07401566880345344,-0.03206175630167127
1742324424125998600,1.80199853515625,0.007989245188236236,0.07630085713118315,-0.06415335061918012
1742324424135982600,1.811982666015625,0.03999064960479736,0.08856441863775252,-0.0795267603751272
1742324424145967400,1.82196728515625,0.043996378114819525,0.058034840339422224,-0.06376921927295624
1742324424155952400,1.831952392578125,0.06525953089594841,0.05926116726398468,-0.04404838229669258
1742324424165937400,1.8419375,0.07406710672974585,0.051878655797243114,-0.038484610689710826
1742324424175921400,1.85192138671875,0.06610767215788364,0.026117607074975967,-0.017333539980929343
1742324424185906400,1.861906494140625,0.0594213262617588,0.04631225384175777,-0.02957408593809232
1742324424195891500,1.871891357421875,0.03659340838193893,0.04643675700426102,-0.030902338867168873
1742324424205876200,1.881876220703125,0.001263151803612709,0.047640872097015376,-0.041144404483493414
1742324424215861500,1.891861572265625,0.015835867035388945,0.05572364078760147,-0.02544801898403093
1742324424225845200,1.90184521484375,0.017134674674272536,0.05637450591176748,-0.025540903165563938
1742324424235830500,1.91183056640625,0.03488017472326755,0.05225041171908378,-0.02168890391252935
1742324424245815600,1.921815673828125,0.05257949754297733,0.061975102397799485,-0.036250768956728276
1742324424255800600,1.931800537109375,0.06227788473665714,0.0546262009397149,-0.06811941383909434
1742324424265784600,1.94178466796875,0.08687748846411704,0.040083296324312685,-0.08886480809012427
1742324424275769600,1.95176953125,0.06654723261892795,0.015773030932247637,-0.09677421124149113
1742324424285754400,1.96175439453125,0.06104395902752876,0.020495383279025555,-0.08895425820555537
1742324424295739400,1.971739501953125,0.05531798259615898,0.022686755843460558,-0.062252458034455775
1742324424305723400,1.981723388671875,0.041866964870691296,0.022376666980981827,-0.02033759890142828
1742324424315708400,1.99170849609375,0.02768646382689476,0.022919103294610974,-0.014813574782945215
1742324424325693400,2.001693359375,0.03558569264411926,0.038699440750479694,-0.024849632965773343
1742324424335678500,2.011678466796875,0.04433656985461712,0.02644377028942108,-0.03594917392795905
1742324424345662500,2.021662353515625,0.04118307425975799,0.009568915595114231,-0.03839110545367002
1742324424355647200,2.031647216796875,0.05489069709479809,-0.004345920249819756,-0.017977920565381646
1742324424365632500,2.041632568359375,0.043453357279300685,-0.015549159048497676,-0.00379014953058213
1742324424375617500,2.051617431640625,0.044270518881082535,-0.015071312403678892,0.03594256152408197
1742324424385601500,2.0616015625,0.05716214915812015,-0.014985972207784653,0.0549522180236876
1742324424395586600,2.071586669921875,0.058978843191266055,-0.02616232299953699,0.06649250675700605
1742324424405571600,2.081571533203125,0.060601475957036015,-0.020679215413331984,0.039690479348134244
1742324424415556400,2.091556396484375,0.022412907338142395,0.006202654032409191,-0.0003157148856669664
1742324424425540400,2.101540283203125,0.0185217451184988,0.02867547486424446,-0.029442422382440415
1742324424435525400,2.111525390625,0.004559855261445045,0.0314841025441885,-0.03699068233752623
1742324424445510400,2.121510498046875,-0.009427169036865234,0.0606762947589159,-0.010050068441871554
1742324424455495400,2.131495361328125,-0.03166355076432228,0.06583090104311705,-0.012949863270297646
1742324424465479400,2.1414794921875,-0.0523497804403305,0.06657090575546026,-0.021832970292028037
1742324424475464400,2.15146435546875,-0.013746201279759406,0.06398030474036931,-0.018017467124480754
1742324424485449500,2.161449462890625,-0.02766249842941761,0.05842267061322927,-0.006918839477747679
1742324424495434500,2.1714345703125,-0.031128713235259054,0.05502864426076412,-0.01986115876240656
1742324424505418500,2.18141845703125,-0.010666939964890479,0.09101941057443619,-0.053524486775510006
1742324424515403500,2.191403564453125,0.009564531680941582,0.0617807488694787,-0.07982207179358229
1742324424525388500,2.201388427734375,0.01030044474005699,0.0473196773186326,-0.10294254287919029
1742324424535373600,2.21137353515625,-0.018583704438805578,0.07358721425831317,-0.09636763973459601
1742324424545357600,2.221357666015625,-0.02852291465103626,0.0646808542251587,-0.050279677901696414
1742324424555342300,2.23134228515625,-0.01620470034778118,0.05313946951329708,-0.030891817473154514
1742324424565327400,2.241327392578125,0.008204933765530586,0.07332330262511969,0.02184338208818808
1742324424575312400,2.2513125,0.008010287976264954,0.05541092157661914,0.08248561018072068
1742324424585297400,2.26129736328125,-0.014539982005953788,0.021107962219417093,0.09238775805188343
1742324424595281400,2.271281494140625,-0.01350070208609104,0.028484920728206634,0.0882030745120719
1742324424605266400,2.281266357421875,-0.04338964439332485,0.020215105032920837,0.06455324579011648
1742324424615251500,2.29125146484375,-0.04629997888207436,0.015037702395021914,0.02141874520163983
1742324424625236500,2.301236572265625,-0.041914895665645595,0.020728315252065657,-0.0007399681797251105
1742324424635220500,2.311220458984375,-0.004325461983680725,0.03438011624664068,0.022764899113588033
1742324424645205500,2.32120556640625,0.01637421169579029,0.04692161791175604,0.027762323808390645
1742324424655190500,2.3311904296875,0.04746785361766815,0.031182781510055064,0.026917507014703003
1742324424665175600,2.341175537109375,0.03783610191941261,0.018500994591414927,-0.005903981613088399
1742324424675159600,2.35115966796875,0.05397124416232109,0.019118541967868805,0.001220445173047483
1742324424685144300,2.361144287109375,0.08462824823260306,0.030073943485319613,0.001978259536717087
1742324424695129300,2.37112939453125,0.0902472571581602,0.044399698218703265,-0.007201127017848193
1742324424705114400,2.3811142578125,0.11149871950149536,0.03773994806855917,-0.002231247917097062
1742324424715098400,2.391098388671875,0.12581249153614044,0.011692191359400748,-0.0026164661087095735
1742324424725083400,2.40108349609375,0.08867781588435172,0.009640227265655993,0.003688260058686137
1742324424735068700,2.411068603515625,0.052257425981760024,0.04473696734905243,0.021968780299834907
1742324424745053400,2.421053466796875,0.028633389288187025,0.07115823354572057,-0.0027743966167792676
1742324424755037400,2.431037353515625,-0.018042437168955802,0.06724193688482046,-0.037140940995793785
1742324424765022500,2.4410224609375,-0.018971242451667786,0.06823766992390155,-0.04376351920701563
1742324424775007500,2.451007568359375,-0.028494857600331304,0.0715013478949666,-0.04702252100296318
1742324424784992500,2.460992431640625,-0.014417232409119605,0.06593699176609516,-0.03518279266534373
1742324424794976500,2.4709765625,-0.022087328645586966,0.04798544775098562,0.007303308750689029
1742324424804961500,2.48096142578125,-0.012688801181316375,0.02167757880091667,0.010935947898309678
1742324424814946300,2.4909462890625,0.039110944160819054,-0.0016264321580529211,0.03128715519998222
1742324424824931300,2.500931396484375,0.10634323643445968,0.00891015942543745,0.030438045823667197
1742324424834915300,2.510915283203125,0.14250760574936866,0.0003615267887711525,0.02505275432243943
1742324424844900400,2.520900390625,0.1749701979368925,-0.021524726326763628,-0.01960309234810993
1742324424854885400,2.530885498046875,0.20823767676651478,-0.061680795626342294,-0.027959892207104712
1742324424864870700,2.54087060546875,0.24903321301341055,-0.10646452472656964,-0.059325683867558834
1742324424874854400,2.5508544921875,0.2761485989540815,-0.17133534856587648,-0.09446288382550701
1742324424884839400,2.56083935546875,0.26220015310049055,-0.19116437689065932,-0.15123773243278263
1742324424894824400,2.570824462890625,0.23077274917960167,-0.19275223060399294,-0.19553186965147032
1742324424904809500,2.5808095703125,0.20287176581919192,-0.18858371274769306,-0.2353773203656077
1742324424914793500,2.59079345703125,0.13586860612630844,-0.16085224073529242,-0.23716477003796024
1742324424924778500,2.600778564453125,0.0779167678952217,-0.12819734084606169,-0.22710962356217204
1742324424934763500,2.610763427734375,-0.024207974061369895,-0.07739508210867643,-0.18805324086649342
1742324424944748300,2.620748291015625,-0.15323533599078654,-0.0051475920215249054,-0.11416260494850575
1742324424954732500,2.630732666015625,-0.2810463078677654,0.06352203957885504,-0.004345098265912384
1742324424964717300,2.64071728515625,-0.4029869264066219,0.14665420403480528,0.08803798361085355
1742324424974702300,2.650702392578125,-0.5132224941045046,0.19575725763887167,0.16646977008981628
1742324424984687400,2.660687255859375,-0.5253893172383308,0.22423428732156753,0.22866931062694637
1742324424994671400,2.67067138671875,-0.5475502956420183,0.21836130363494158,0.2185431995404884
1742324425004656600,2.68065673828125,-0.5439291825354099,0.21627806762009857,0.1778176963225007
1742324425014641400,2.690641357421875,-0.5020131178259849,0.23183804032355546,0.13621852467567658
1742324425024626400,2.70062646484375,-0.4014227458298206,0.2410033435538411,0.15040481613944284
1742324425034611500,2.710611572265625,-0.31537294036149977,0.24996406412273645,0.12154944553049281
1742324425044595500,2.720595458984375,-0.2024409731864929,0.2208937447220087,0.11633359231203794
1742324425054580500,2.73058056640625,-0.09148761260807514,0.20474808108508585,0.08841826989902182
1742324425064565500,2.7405654296875,0.02793430110812187,0.18304332201629875,0.051951995028089726
1742324425074549500,2.750549560546875,0.06714169138073921,0.14211451477855444,0.022285445033572614
1742324425084534500,2.760534423828125,0.10211831221580504,0.09137421536147594,-0.01623885834570974
1742324425094519300,2.770519287109375,0.12562544453144073,0.055526364649832245,-0.059691685902047896
1742324425104504300,2.78050439453125,0.125330260977149,0.02889408605098724,-0.0663794748365879
1742324425114489600,2.790489501953125,0.15730945356190204,0.03474193529635668,-0.07079568384364247
1742324425124473300,2.800473388671875,0.1776151594877243,0.05246259316504001,-0.08338360020006075
1742324425134458600,2.810458740234375,0.2139829424202442,0.041676702995598315,-0.06970865579191594
1742324425144443400,2.820443359375,0.2503682610094547,0.03446896357387304,-0.04806735388077795
1742324425154428200,2.83042822265625,0.25230945820510386,0.012245149067044258,-0.0158220577057451
1742324425164412200,2.840412109375,0.2431447394967079,0.013179507307708263,-0.013483458690345286
1742324425174397200,2.850397216796875,0.2652016730040312,-0.005702011033892631,-0.021938732221443207
1742324425184382200,2.86038232421875,0.27062311353087426,-0.014274316807091235,-0.052681186085473744
1742324425194367200,2.8703671875,0.28658640633821486,-0.013048574404418468,-0.06655415555005893
1742324425204351200,2.880351318359375,0.28905308871269225,-0.027821780644357204,-0.0863067028388381
1742324425214336300,2.890336181640625,0.3293652253568172,-0.05303045618087053,-0.10883784799547866
1742324425224321000,2.900321044921875,0.321698636251688,-0.06826514245271682,-0.17060159093122929
1742324425234306000,2.91030615234375,0.2998474544495344,-0.07403261993825436,-0.20141942985272035
1742324425244290000,2.9202900390625,0.2736304786533117,-0.07421762111634016,-0.2311037346996367
1742324425254275000,2.930275146484375,0.23548224204480647,-0.07268851185292005,-0.2621579213939607
1742324425264260400,2.94026025390625,0.1979413236796856,-0.05595365015119314,-0.240767288041953
1742324425274245400,2.950245361328125,0.14150515070855615,-0.02979132715165615,-0.22112072187829762
1742324425284229400,2.9602294921875,0.08341828792095184,-0.02197393139898777,-0.1889519250055775
1742324425294214100,2.970214111328125,0.010810147827863693,-0.007097849306464195,-0.1320930879092775
1742324425304199200,2.98019921875,-0.05232523052096367,0.006011515374481678,-0.053335576607286925
1742324425314184200,2.99018408203125,-0.11469780780375004,0.036543139499425885,0.021958697297237813
1742324425324168200,3.000168212890625,-0.177518713375926,0.04201601795256137,0.0688040533686988
1742324425334153200,3.0101533203125,-0.22374211989045142,0.040860418176651,0.09294566592928022
1742324425344138200,3.02013818359375,-0.1986906807422638,0.03159019326716661,0.11995275092357768
1742324425354123000,3.030123046875,-0.15523907702863216,0.033739480255544185,0.1439056907779537
1742324425364107000,3.04010693359375,-0.12371581151783466,0.014931027150154113,0.15032799717672168
1742324425374092000,3.050092041015625,-0.10636603278815746,0.01530892055183649,0.13228683864939958
1742324425384077300,3.060077392578125,-0.09384557391107082,-0.010877367845177649,0.11302600213401019
1742324425394062300,3.070062255859375,-0.06635492491722106,-0.004666238245368003,0.10502170550711452
1742324425404046300,3.08004638671875,-0.07816343613266945,0.04162584959119558,0.099618476490397
1742324425414031400,3.09003125,-0.07623802102804184,0.05754734908342361,0.05495870256340131
1742324425424016100,3.10001611328125,-0.062170917230844495,0.046152971626818175,0.003256298382207751
1742324425434001200,3.110001220703125,-0.030732991915941237,0.05567921712398529,-0.06414331328235566
1742324425443985200,3.119985107421875,-0.009397942942380905,0.04957008659392595,-0.10742898584455252
1742324425453970200,3.12997021484375,0.008942600390315055,0.049152153442800044,-0.10637825294891372
1742324425463955200,3.139955078125,0.032630934491753576,0.04554799147099256,-0.10184877455942332
1742324425473940200,3.149940185546875,0.04197977759540081,0.044262920096516604,-0.052286542478390034
1742324425483924200,3.15992431640625,0.11480594435334204,0.03201630972474813,-0.036828696708846836
1742324425493909200,3.1699091796875,0.17879414013922212,0.034273148740828034,-0.019025274193845688
1742324425503894000,3.17989404296875,0.24174831670224664,0.029136662635207176,-0.013927731859125197
1742324425513879300,3.18987939453125,0.2667898189783096,0.04868278236538171,-0.05558017719630152
1742324425523863000,3.199863037109375,0.25356150409281253,0.02411240473240614,-0.07166769917150959
1742324425533848300,3.209848388671875,0.2410667641788721,0.02420505145192146,-0.07863361092768609
1742324425543833300,3.219833251953125,0.2503326051741838,0.03388911785930395,-0.06926213586712256
1742324425553818000,3.229818115234375,0.20198679967820643,0.07676642881631851,-0.04178715936644003
1742324425563802400,3.23980224609375,0.13478197993338106,0.088186817497015,0.0075008954157121475
1742324425573787100,3.249787109375,0.09934767845869064,0.1507642697021365,0.03410761944819241
1742324425583772200,3.259772216796875,0.014517770174145697,0.17499387107342482,0.049616391687374556
1742324425593757200,3.269757080078125,-0.035249008035659786,0.20566402688622473,0.04390027906289324
1742324425603741200,3.2797412109375,-0.06623860506117343,0.20774463255256415,0.03593077975474298
1742324425613726200,3.289726318359375,-0.0649286915063858,0.17651830416172742,0.024832389570027587
1742324425623711200,3.299711181640625,-0.10060732313096522,0.12596534401029347,0.027076953626424073
1742324425633696000,3.309696044921875,-0.2147708779275417,0.06716828712671995,-0.026932056129863484
1742324425643680000,3.319679931640625,-0.16602409041523933,0.006827215671539306,-0.00992468849653378
1742324425653665300,3.329665283203125,-0.184424839502573,-0.0010986088916659354,0.007829469782952219
1742324425663650300,3.339650390625,-0.18088146780729292,0.05323825371265411,0.043885236757388334
1742324425673635300,3.34963525390625,-0.1937491326868534,0.03958148428201675,0.030265182607946917
1742324425683619300,3.359619384765625,-0.2263479184746742,0.01279138477295637,0.001276842402247712
1742324425693604400,3.369604248046875,-0.22109774286150932,0.036545185326039786,-0.0025687819089274854
1742324425703589000,3.379589111328125,-0.2063712983727455,0.04625672426223754,-0.0061008650252129875
1742324425713574100,3.38957421875,-0.23841771097481249,0.039076749630272384,0.004376698980573564
1742324425723558100,3.39955810546875,-0.2598094585716724,0.009845686709880829,0.03507969761705026
1742324425733543200,3.409543212890625,-0.23115035032033918,-0.02538315532058477,0.06183048802902922
1742324425743528200,3.419528076171875,-0.19629121838510036,-0.03161328188180923,0.07768261207947506
1742324425753513200,3.42951318359375,-0.14599310977756977,-0.01865852324068546,0.0861577502216678
1742324425763497200,3.439497314453125,-0.08386661621034144,-0.04690320547223091,0.08647060642996802
1742324425773482000,3.44948193359375,-0.06153086576163769,-0.059303545100986954,0.04535536410887726
1742324425783467300,3.45946728515625,-0.02947802341878414,-0.0886897985830903,0.030341133920988066
1742324425793452300,3.469452392578125,0.0037269115686416623,-0.07498042218238114,0.01645419986313209
1742324425803436300,3.479436279296875,0.05543547149598598,-0.05589549022316932,0.039530347749823704
1742324425813421300,3.48942138671875,0.09340542892813682,-0.04388678026050329,0.06890338555732742
1742324425823406300,3.49940625,0.10506430253982543,-0.0391065602466464,0.09604713907595723
1742324425833391000,3.50939111328125,0.11606149737238883,-0.030316520069539544,0.11875214296216144
1742324425843375000,3.519375,0.13647007915079593,-0.005192892467975616,0.13994097013175485
1742324425853360000,3.529360107421875,0.18444822037816047,-0.003810498198866844,0.16603727869037538
1742324425863345200,3.53934521484375,0.24139292739331722,-0.0034822891578078267,0.15285962541303597
1742324425873330200,3.549330078125,0.2939829463303089,-0.01570405734926462,0.13702151162163353
1742324425883314200,3.559314208984375,0.28576749117076394,-0.04036649717986583,0.1451219073004555
1742324425893299200,3.56929931640625,0.28629063826203344,-0.047129999965429305,0.13958486843677237
1742324425903284000,3.579283935546875,0.2843973718613386,-0.05019114110171795,0.12122014964404515
1742324425913269200,3.589269287109375,0.2932645689278841,-0.04511135361939669,0.10700565499910153
1742324425923253200,3.599253173828125,0.2782926252454519,-0.06146656835377216,0.0746023278512992
1742324425933238300,3.60923828125,0.2549789696753025,-0.06188099437355995,0.06568962027574889
1742324425943223300,3.619223388671875,0.2873269955724478,-0.049265258428454396,0.021464502305816858
1742324425953208300,3.629208251953125,0.3141904525786638,-0.05604162069559097,-0.015119188399706034
1742324425963192300,3.6391923828125,0.3186737354725599,-0.08431728258728981,-0.04319248698656447
1742324425973177000,3.649177001953125,0.32112522027790547,-0.09095365186184644,-0.09356649210820905
1742324425983162000,3.659162109375,0.2447217795550823,-0.06443038659542799,-0.10727785953660494
1742324425993147100,3.669147216796875,0.15448504379093647,-0.05282002830058336,-0.11388803492398
1742324426003131100,3.679131103515625,0.09515198033452034,-0.014282500113546847,-0.08733509603850544
1742324426013116200,3.6891162109375,0.03565934240221977,0.022269991736114023,-0.02951364728801418
1742324426023101200,3.69910107421875,-0.03972469214498996,0.03156768917441368,0.013917324629542416
1742324426033086200,3.709086181640625,-0.07205284429788589,0.019467501536011695,0.08858474903972818
1742324426043070000,3.719070068359375,-0.10007774629890918,0.025035949318110942,0.1777563580567017
1742324426053055200,3.72905517578125,-0.11207739617228507,0.01722439878433943,0.24200152427833527
1742324426063040300,3.739040283203125,-0.1050789155870676,-0.001967500680685043,0.25173812459055334
1742324426073025300,3.749025390625,-0.08808861781954765,0.0008984101444482803,0.23010491465432567
1742324426083009300,3.75900927734375,-0.058660863283276556,0.010011398665606975,0.17851643744269385
1742324426092994300,3.768994384765625,-0.026780454897880553,0.04219780426025391,0.11845029220506548
1742324426102979000,3.77897900390625,0.01016717374920845,0.06932166576832532,0.00727232909053564
1742324426112964000,3.788964111328125,0.0578963086515665,0.06317629488110542,-0.08432289034416898
1742324426122948000,3.798947998046875,0.11145488035976886,0.07659545616358518,-0.183931667424459
1742324426132933000,3.80893310546875,0.12934417279362678,0.0692749040171504,-0.2744580885838717
1742324426142918100,3.818918212890625,0.12205635387301444,0.0673906977057457,-0.3498489547306671
1742324426152903200,3.828903076171875,0.10252864658236503,0.07203852351158857,-0.40903873725887385
1742324426162887200,3.83888720703125,0.08871931693851948,0.10089344659596682,-0.4593002401830628
1742324426172872200,3.8488720703125,0.06333528483510018,0.14920447303950785,-0.4747077257385477
1742324426182857000,3.85885693359375,-0.04263502663373947,0.17572949187159537,-0.5011519709520041
1742324426192842000,3.868842041015625,-0.12556290068924425,0.23896540798544882,-0.4793582549581304
1742324426202826000,3.878825927734375,-0.22224574385285376,0.27588293375521894,-0.43662287322245535
1742324426212811000,3.88881103515625,-0.29860359186828134,0.27008096947818994,-0.3864438974825665
1742324426222796000,3.898796142578125,-0.3677653908997774,0.25752105537354947,-0.29509258807264266
1742324426232781000,3.908781005859375,-0.40723932315409184,0.24960575220435857,-0.14705656515746376
1742324426242765000,3.91876513671875,-0.3960463134884834,0.2359355387702584,0.013717148715211078
1742324426252750000,3.92875,-0.381203549143672,0.2295996137470007,0.15091049150610342
1742324426262735000,3.938735107421875,-0.34065351209044453,0.2089528392985463,0.2541244352051988
1742324426272720100,3.94872021484375,-0.30783553059399127,0.18627718937098978,0.3053356400696561
1742324426282704100,3.9587041015625,-0.18031506609618664,0.14840250900685786,0.2906058528463356
1742324426292689200,3.968689208984375,-0.07979132959544658,0.11995324411392211,0.23706605890383942
1742324426302674200,3.978674072265625,0.013753215542435646,0.08779401878714561,0.15161434719283132
1742324426312659000,3.988658935546875,0.13477671923637388,0.027417291496694085,0.07822113026981242
1742324426322643000,3.998642822265625,0.21899463310241699,-0.019124679447710513,0.0148437735583866
1742324426332628000,4.0086279296875,0.27913141415715215,-0.053338791477680204,-0.07955739297540858
1742324426342613000,4.018613037109375,0.32803134640455245,-0.06888005948066711,-0.19577884841617196
1742324426352598000,4.028597900390625,0.3485889812648296,-0.09002192396968603,-0.2983441372144967
1742324426362582000,4.03858203125,0.3474783896744251,-0.10164923339933156,-0.3951777504930272
1742324426372567300,4.0485673828125,0.2805073786854744,-0.12456190695315598,-0.4575412311539054
1742324426382552000,4.058552001953125,0.24274083487093448,-0.11661854673326015,-0.47123847872540353
1742324426392537000,4.068537109375,0.21136194626688956,-0.11957330488562583,-0.4703869033973664
1742324426402521000,4.07852099609375,0.15525193651020525,-0.14004881442040204,-0.4410470098076388
1742324426412506000,4.088506103515625,0.11213584836125373,-0.1377031280770898,-0.39548824121430515
1742324426422491100,4.0984912109375,0.04239712622463703,-0.11637158623486757,-0.3384796021174639
1742324426432476200,4.10847607421875,-0.01279752225279808,-0.06937105786800384,-0.2505260819196701
1742324426442460200,4.118460205078125,-0.10215689066052436,-0.03396422892212868,-0.17625426466437055
1742324426452445000,4.12844482421875,-0.18529869972765445,0.013819558776915073,-0.13672323192795738
1742324426462430000,4.138429931640625,-0.25671383064389225,0.03737988258451223,-0.0495259688909864
1742324426472414000,4.1484140625,-0.311153861361742,0.08473901513069867,0.034599366754200306
1742324426482399000,4.15839892578125,-0.375011708766222,0.09721943425834179,0.09813153500142506
1742324426492384000,4.168384033203125,-0.44367666419148444,0.11963467968404293,0.15533006151402368
1742324426502369300,4.178369384765625,-0.4720996255993843,0.12040303370803594,0.21810637902580202
1742324426512354000,4.18835400390625,-0.4972399120748043,0.11823007358312607,0.28557143887570124
1742324426522338000,4.198338134765625,-0.4764718493342399,0.1321533849954605,0.32760965039376166
1742324426532323000,4.208322998046875,-0.40095746640563007,0.12622370268553496,0.3197442507809028
1742324426542308000,4.21830810546875,-0.3132739222556352,0.09174275641292333,0.27098365393895657
1742324426552292000,4.2282919921875,-0.22034604771137237,0.09835925194323063,0.23706196725061163
1742324426562277000,4.238277099609375,-0.12598083384037018,0.10922580613344907,0.19151671572597695
1742324426572262100,4.24826220703125,-0.007004325804114342,0.09998948349356651,0.12408258073730394
1742324426582247000,4.258246826171875,0.06939619230926036,0.04581541023552418,0.08494843836398795
1742324426592231000,4.26823095703125,0.10325696085691452,0.039135201819241044,0.04462874860106967
1742324426602216000,4.2782158203125,0.19230536361932754,0.01095452473461628,0.010292188368365167
1742324426612201000,4.288200927734375,0.25418168181777,-0.020776246047019956,-0.00207731773070991
1742324426622186200,4.298186279296875,0.28165947133004665,-0.04246989919990301,-0.005843017806624993
1742324426632171300,4.308171142578125,0.304296250551939,-0.051281274425983424,-0.030821766177937387
1742324426642155300,4.3181552734375,0.39421559092998504,-0.04648907171338797,-0.050306492843385786
1742324426652140000,4.32814013671875,0.4450105431437492,-0.0571340921074152,-0.08360475953691639
1742324426662125000,4.338125,0.4956769005417824,-0.07801438305079937,-0.1057327215869911
1742324426672110000,4.348110107421875,0.49109424892663955,-0.0953887116998434,-0.1142152667175047
1742324426682094000,4.358093994140625,0.4699895015776157,-0.09677198275178671,-0.12678297140295616
1742324426692079000,4.3680791015625,0.39393326685726643,-0.073675184802711,-0.10427832152759656
1742324426702064000,4.378064208984375,0.30441023232042785,-0.027366438092291355,-0.07535506418105214
1742324426712049000,4.388048828125,0.18668109399676322,-0.011427402943372725,-0.058731325570447364
1742324426722033000,4.398032958984375,0.02821487161517143,0.011776070250570774,-0.022245186088420448
1742324426732018000,4.408017822265625,-0.03909516206979751,0.11259791291505097,0.005234904978796839
1742324426742003000,4.4180029296875,-0.06979249815046787,0.09466273551285266,-0.03192994661554694
1742324426751988200,4.42798828125,-0.10418518161773681,0.13824234952032566,-0.08268764469199813
1742324426761972000,4.437971923828125,-0.1421136379957199,0.171037826924026,-0.08969368752916343
1742324426771957200,4.447957275390625,-0.24019231943190097,0.17255115409642457,-0.1297240663561504
1742324426781942000,4.45794189453125,-0.2535708564430475,0.15716507665514945,-0.15279376623574645
1742324426791927000,4.467927001953125,-0.2705897957831621,0.14084727132171393,-0.16425941883027553
1742324426801911000,4.4779111328125,-0.2710334478974342,0.1501931918159127,-0.1640631108068861
1742324426811896000,4.48789599609375,-0.281561856174469,0.13916852445453404,-0.1902312607590109
1742324426821881000,4.497881103515625,-0.24483283871412276,0.12490940521657466,-0.21955062301736325
1742324426831866000,4.5078662109375,-0.2133814693957567,0.09411474624127149,-0.2373041419760324
1742324426841850000,4.51785009765625,-0.19836977822482585,0.08283902672827244,-0.21605046940930187
1742324426851835100,4.527835205078125,-0.20621172389686107,0.07576485055834055,-0.15344963632859288
1742324426861820000,4.53781982421875,-0.2193991222500801,0.09022738341391086,-0.0655372701250948
1742324426871805000,4.547804931640625,-0.2549438983619213,0.08688450272679328,0.009447115846350789
1742324426881789000,4.557788818359375,-0.2975362548977136,0.12082798112183808,0.047160870027728376
1742324426891774200,4.567774169921875,-0.39319852284193035,0.14177052364647388,0.10900096613531932
1742324426901759200,4.57775927734375,-0.4447141905456781,0.16158084727078675,0.1362283976157196
1742324426911744000,4.587743896484375,-0.37655075490176676,0.1768167025864124,0.1600132874268107
1742324426921728300,4.597728271484375,-0.21294307797849177,0.15236732098460196,0.1881778901594691
1742324426931713000,4.607713134765625,-0.0252490075469017,0.0872235254228115,0.17128774656448512
1742324426941698000,4.617697998046875,0.18224457285404205,-0.021118775874376296,0.16626233788421377
1742324426951683000,4.62768310546875,0.22190555211305618,-0.11822744323462248,0.11517362688826396
1742324426961667000,4.6376669921875,0.13754501490592955,-0.06146832191944122,0.17652794877290726
1742324426971652000,4.647652099609375,0.11117255628705024,0.07508855873197316,0.25791255717547606
1742324426981637000,4.65763720703125,0.09225801245868205,0.15890022988468408,0.26175131335444746
1742324426991622000,4.667621826171875,0.07773556610941887,0.1776706890672445,0.2022110186218284
1742324427001606000,4.67760595703125,0.15497545765638351,0.22974252934902906,0.20954830270735544
1742324427011591000,4.6875908203125,0.2702209624707699,0.1267728610008955,0.16728886792035771
1742324427021576200,4.697576171875,0.22797113576233385,-0.0738648621559143,0.5566648185331374
1742324427031561200,4.707561279296875,0.04141103779673576,-0.1394233759984374,1.4820038133740425
1742324427041546000,4.7175458984375,0.5265571919739246,0.4918927058279514,0.5260787973398342
1742324427051530200,4.7275302734375,0.5179834248960018,0.25936288384795186,-0.29927060440965
1742324427061515000,4.737514892578125,-0.048721068549156185,-0.26566666016727686,-0.4731657935261726
1742324427071500000,4.7475,-0.26751930229663845,-0.1566185486882925,-0.35047399129383267
1742324427081485000,4.757485107421875,-0.23572715671658515,0.09692425070405006,-0.09348386445920914
1742324427091469000,4.767468994140625,-0.11189853247404098,0.20340455752164124,0.1312812052708119
1742324427101454000,4.7774541015625,0.04025076184570789,0.15899989086687563,0.320966668715328
1742324427111439000,4.787439208984375,0.09704349316954612,0.021764964823424816,0.35258645340315997
1742324427121424000,4.797423828125,0.12021277183294296,-0.2337210775911808,0.20382044484615325
1742324427131408000,4.807407958984375,0.2711959449827671,-0.4015104241132736,0.04459445360582322
1742324427141393700,4.8173935546875,0.5173655852586031,-0.43710488458573815,-0.054351402586326
1742324427151378700,4.827378662109375,0.4617249465793371,-0.35096681631207466,-0.14296192538812755
1742324427161364000,4.837364013671875,0.31586218518316744,-0.18746902950406075,-0.11938954581655561
1742324427171347700,4.84734765625,0.05016834474802017,-0.06544131720364094,-0.08143814695440232
1742324427181332700,4.857332763671875,-0.17024550750255585,-0.006356091028451919,-0.07532130804192275
1742324427191317800,4.86731787109375,-0.21765081727802751,-0.06827683289051055,-0.14602734084073454
1742324427201302800,4.877302734375,-0.19606734650135038,-0.12528642183542252,-0.29669311860445885
1742324427211286800,4.887286865234375,-0.1959662242144346,-0.055958618587255475,-0.3895180807635188
1742324427221271800,4.897271728515625,-0.39717385621368884,-0.013078092759847641,-0.42278358683176337
1742324427231256800,4.9072568359375,-0.5248445428371429,0.03789104697704315,-0.34843123341985044
1742324427241241600,4.91724169921875,-0.3998807770848274,0.12159341253638267,-0.2499355321479961
1742324427251225600,4.9272255859375,-0.23385434858202933,0.13112287290394306,-0.11669029679521918
1742324427261210600,4.937210693359375,-0.18151099788248537,0.19828502255082128,0.14517729988265782
1742324427271195600,4.947195556640625,-0.3096118926167488,0.4288157796680927,0.5838581650808453
1742324427281180700,4.9571806640625,0.035754034948348994,0.2749257791608572,0.8158682740356773
1742324427291164700,4.96716455078125,0.30476912876069545,-0.08163198902606963,0.6543680177204311
1742324427301150000,4.97714990234375,0.3947270475834608,-0.19728432107567787,0.5469511607050895
1742324427311134700,4.987134765625,0.3532259934157133,-0.18733225138187407,0.3522465539243072
1742324427321119700,4.99711962890625,0.2856307130485773,-0.15171031838059423,0.049446834673592815
1742324427331103700,5.007103759765625,0.22448329364657402,-0.005602057790756225,-0.1848310639495961
1742324427341088800,5.0170888671875,0.17224457236528395,0.14154957437217236,-0.2425881102609448
1742324427351073800,5.02707373046875,0.11284721150100231,0.2393973696619272,-0.18375112322578205
1742324427361058800,5.037058837890625,0.07610358099341392,0.15461656121611594,-0.12414605616126209
1742324427371043600,5.047043701171875,0.06780278563797473,-0.012585340806841849,-0.11025935956542379
1742324427381027600,5.057027587890625,0.0729237819135189,-0.11252221733033656,-0.17206486841682345
1742324427391012600,5.0670126953125,-0.049994157224893566,-0.07627543042898177,-0.2700669957517646
1742324427400997600,5.07699755859375,-0.22954759129881858,0.051609775727987285,-0.28980356002012264
1742324427410983000,5.08698291015625,-0.32142566452920435,0.31501813557446,-0.2446983073479496
1742324427420966700,5.096966552734375,-0.34902854172587394,0.5704267288386822,-0.1932579699027352
1742324427430952000,5.106951904296875,-0.2616208919078111,0.6896458134591579,-0.20661988457264377
1742324427440936700,5.116936767578125,-0.11813888816833495,0.6005424656391144,-0.31908585993740707
1742324427450921700,5.126921630859375,-0.06934358533918857,0.42415830925107,-0.500948849595338
1742324427460905700,5.13690576171875,0.025595629027485845,0.2470090137094259,-0.7132378475792706
1742324427470890800,5.146890869140625,-0.0012537994533777237,0.24398235936462878,-0.7262017393749207
1742324427480875800,5.156875732421875,-0.05213701447248459,0.32070202642977236,-0.6813816968522965
1742324427490860800,5.16686083984375,-0.1013496659308672,0.3304945216476917,-0.5974524637345224
1742324427500844800,5.1768447265625,-0.18322540058493614,0.30788872208595275,-0.4505325579682365
1742324427510829600,5.18682958984375,-0.1887514705300331,0.2803139019399881,-0.31879838476553557
1742324427520814600,5.196814697265625,-0.08829203143715858,0.24017069212198255,-0.2202125940574333
1742324427530799600,5.206799560546875,-0.02272504202723503,0.17823942886590957,-0.20569394710045308
1742324427540783600,5.21678369140625,-0.011814356434345245,0.11372457885742186,-0.22383189879944546
1742324427550769000,5.226768798828125,0.046181320938467975,0.09910217926502227,-0.16259090109616517
1742324427560754000,5.23675390625,0.19533669413924215,0.11527589995265006,-0.0724046899428591
1742324427570738700,5.24673876953125,0.27340193059444423,0.05262041407525539,-0.10554587551169096
1742324427580722700,5.25672265625,0.3270376591920853,-0.11879822885990142,-0.20509079357553273
1742324427590707700,5.266707763671875,0.41554713277220723,-0.32697219274044037,-0.09015227235108614
1742324427600692700,5.276692626953125,0.4726327095627784,-0.5225812740802764,0.14970398352686315
1742324427610677800,5.286677734375,0.17983517362475393,-0.42471828122138977,0.19029782318919897
1742324427620661800,5.296661865234375,-0.11663315978050232,-0.3069973262041807,0.29312125146705653
1742324427630646800,5.306646728515625,-0.27924948757886886,-0.2340086623609066,0.2707576631633565
1742324427640631600,5.316631591796875,-0.22723405365943908,-0.22841069622337817,0.2807424660829827
1742324427650616600,5.326616455078125,-0.224766786763072,-0.21239830357730388,0.2851777451166883
1742324427660600600,5.3366005859375,-0.2224479884266853,-0.22891689217984676,0.21352401967160403
1742324427670585600,5.346585693359375,-0.23028175079226493,-0.1822685382515192,0.23339001900590955
1742324427680571000,5.35657080078125,-0.2636865922659635,-0.14339257189035415,0.24836134163383394
1742324427690556000,5.366555908203125,-0.26142741516232487,-0.10200842210054396,0.24404837380554525
1742324427700540000,5.376539794921875,-0.21847265505492686,-0.047832010754942894,0.23201767120677977
1742324427710524700,5.386524658203125,-0.06714169138073921,-0.04543839361667633,0.2220618386533111
1742324427720509700,5.396509765625,0.05929390048980712,-0.06494330455362797,0.18527089840527622
1742324427730494700,5.40649462890625,0.11011281810104846,-0.03768704883754253,0.16468827523421495
1742324427740478700,5.416478759765625,0.19473931276798248,-0.010935820034146308,0.14245160124581308
1742324427750463700,5.426463623046875,0.3172644531965256,0.04153787904679775,0.17699194955546407
1742324427760448800,5.43644873046875,0.35655601462125774,0.08741407955884933,0.1743423118295148
1742324427770433800,5.446433837890625,0.44042204630970955,-0.029314357289671897,0.05183967549372464
1742324427780417800,5.456417724609375,0.433755574157834,0.025139117431640625,-0.018017302727699278
1742324427790402600,5.466402587890625,0.4107224890947342,0.11519640497565269,-0.04299753980319947
1742324427800387600,5.4763876953125,0.35502690535783765,0.12610241439342498,-0.10957819976769387
1742324427810372900,5.486372802734375,0.3261152836501598,0.11492051064372062,-0.1486384001219645
1742324427820356900,5.49635693359375,0.3010854718118906,0.2336287231326103,-0.03936404213905334
1742324427830342000,5.506341796875,0.24897826795578,0.145765146240592,-0.15183010883536188
1742324427840327000,5.516326904296875,0.21356208665966986,0.1424327869474888,-0.13773202537801116
1742324427850311700,5.526311767578125,0.19254443307220934,0.19047756367027757,-0.1704066163484007
1742324427860295700,5.536295654296875,0.14458148941397667,0.1941372552216053,-0.15009608811698852
1742324427870280700,5.54628076171875,0.10140110385715961,0.17306056492328642,-0.11087806685250252
1742324427880265700,5.556265625,0.07036357603669166,0.1285550682425499,-0.06238576555792242
1742324427890250800,5.566250732421875,0.07487900763452053,0.11091185952425002,-0.029297808013670146
1742324427900234800,5.57623486328125,0.06425473776757716,0.10176993716955185,-0.0021167729582637546
1742324427910219800,5.5862197265625,0.08685586115419865,0.08841068938076496,-0.07170151010956614
1742324427920204500,5.59620458984375,0.11162088457643986,0.08238134608864783,-0.05957551217647269
1742324427930189800,5.60618994140625,0.11513210756778716,0.08907762885689735,-0.08351321792909876
1742324427940173600,5.616173583984375,0.10410627116262912,0.07830839756131172,-0.12812420254461465
1742324427950158800,5.626158935546875,0.044321956807374954,0.048236499902606006,-0.12315026832325383
1742324427960144000,5.636143798828125,-0.007086158868670463,0.056470659762620924,-0.08758589246179908
1742324427970129000,5.64612890625,-0.0743009154856205,0.05921732812225818,-0.06126492656813934
1742324427980113000,5.65611279296875,-0.12693126643300057,0.04330371967554092,-0.04431612985478714
1742324427990097700,5.66609765625,-0.11097498788833618,0.006095978787541389,-0.054231009343359615
1742324428000082700,5.676082763671875,-0.08308627948760985,-0.021362521502375602,-0.08718027080297469
1742324428010067700,5.686067626953125,-0.05585515821278095,-0.05926292082965374,-0.14517390234917402
1742324428020051700,5.6960517578125,-0.03911971198916435,-0.06010170974135399,-0.16585792180178685
1742324428030036700,5.70603662109375,-0.00812017809152603,-0.05031038356721401,-0.16078651855532078
1742324428040021800,5.716021728515625,0.03128185797035694,-0.03029752310812473,-0.21638795773535965
1742324428050006500,5.726006591796875,0.003949029886722564,0.006375964772701263,-0.22654347757939247
1742324428059990500,5.735990478515625,-0.03161737353503704,0.030306875458359715,-0.2019211140308529
1742324428069975600,5.7459755859375,-0.05444821402430534,0.03578092295527458,-0.1847015375521034
1742324428079960800,5.7559609375,-0.1254173547387123,0.04819207623898983,-0.12545934898322447
1742324428089945900,5.76594580078125,-0.16047990029156206,0.055285833892226216,-0.051960228566895236
1742324428099929900,5.775929931640625,-0.18143851716816425,0.07609305959939956,-0.0008593750420026481
1742324428109915000,5.785914794921875,-0.2047247002094984,0.07849602908790111,-0.023974982722825368
1742324428119899600,5.795899658203125,-0.21187983266115187,0.06353986749649047,-0.03376580200688913
1742324428129884700,5.805884765625,-0.17885493041574954,0.06400105526745319,-0.03573221127560828
1742324428139868200,5.8158681640625,-0.1598731665700674,0.051312254086136815,-0.04928278038541321
1742324428149853200,5.825853271484375,-0.13908873721659182,0.036567104896903034,-0.0647265382640995
1742324428159838200,5.835838134765625,-0.05680325271785259,0.010355974319577216,-0.0723735276196152
1742324428169823200,5.8458232421875,-0.017677110987901687,0.002704582783579826,-0.06318160124388524
1742324428179807200,5.85580712890625,0.012512860092520712,-0.0005102876096963882,0.005019896821514703
1742324428189792300,5.865792236328125,0.01880757632255554,-0.002951251021027565,0.07549450005120598
1742324428199777000,5.875777099609375,0.02310673482120037,-0.00012684125006198882,0.11088086159778758
1742324428209762000,5.885761962890625,-0.005897825866937637,0.018028993165493012,0.08664385323817841
1742324428219746000,5.89574609375,-0.07848200056254863,0.02126490634679794,0.04563226308780722
1742324428229731000,5.90573095703125,-0.12901333340406418,0.03747428286969662,0.03134156596807297
1742324428239716400,5.91571630859375,-0.14668985987007618,0.07070318325459957,0.06669727208148687
1742324428249701400,5.925701416015625,-0.1242325288683176,0.043590135401487345,0.09853036159328185
1742324428259685400,5.935685302734375,-0.08271218547821045,0.016467150676250458,0.07946721220761536
1742324428269670100,5.945670166015625,0.018465046495199203,-0.0018786533534526824,0.043562288413336495
1742324428279655200,5.9556552734375,0.12194587923586368,-0.01708791292309761,0.028067275271448304
1742324428289640200,5.96564013671875,0.19417057296931742,-0.023807576566934583,0.05766089246049523
1742324428299624200,5.975624267578125,0.2254460011988878,-0.008809329399466515,0.041482806125003845
1742324428309609200,5.985609130859375,0.21685294489860532,-0.019885434687137604,0.003990588023106102
1742324428319594200,5.99559423828125,0.20898528026342392,-0.004082300877571106,-0.010935267478297464
1742324428329579000,6.0055791015625,0.17821780155599115,0.04663140279352665,-0.031911755655019074
1742324428339563000,6.01556298828125,0.1718979508846998,0.0387689988553524,-0.06106874640891328
1742324428349548000,6.025548095703125,0.14219079488515854,0.03795242177546024,-0.10345578963095321
1742324428359533300,6.035533203125,0.1152045882821083,0.02567863113582134,-0.10863869042787701
1742324428369518300,6.045518310546875,0.06400222431123256,0.022203648501634598,-0.08400184169625863
1742324428379502300,6.05550244140625,0.014583236625790596,0.02800444373488426,-0.059839661271683865
1742324428389487400,6.0654873046875,0.005227379259467125,0.046183074504137035,-0.06208300148537382
1742324428399472000,6.07547216796875,0.01815875702500343,0.04308920014202595,-0.07335420008688233
1742324428409457200,6.08545703125,0.03111059305667877,0.02565291217267513,-0.09158025932759047
1742324428419441200,6.095441162109375,0.04368599699139595,0.015353051954507826,-0.10778535240101628
1742324428429426200,6.10542626953125,0.055638300591707227,0.01510755276083946,-0.0893182326797396
1742324428439411200,6.1154111328125,0.08730302039980888,0.02950549594759941,-0.06780953503916971
1742324428449396200,6.125396240234375,0.07780570873618126,0.023963059389591215,-0.07802678587464615
1742324428459380200,6.135380126953125,0.0871709184527397,0.0010106383472681046,-0.06781633010613732
1742324428469365000,6.145364990234375,0.053444005417823785,0.01421615687906742,-0.06577153553869575
1742324428479350000,6.15535009765625,0.012761281895637511,0.039356443354487416,-0.06959814462214708
1742324428489335300,6.165335205078125,-0.024420155507326124,0.0521972202271223,-0.03281265686736442
1742324428499319000,6.175319091796875,-0.07617723075151443,0.061060325640439984,-0.008616875567287206
1742324428509304300,6.18530419921875,-0.09683832598626613,0.07186813538074494,0.03430948042953387
1742324428519289300,6.195289306640625,-0.08771335476636886,0.03961947820484638,0.034288602038286625
1742324428529274000,6.205274169921875,-0.10129647443890571,0.00820610280930996,0.02483984222412109
1742324428539258400,6.21525830078125,-0.08928805673718451,0.008057634249329567,0.027727773084817452
1742324428549243100,6.2252431640625,-0.027934885630011556,0.004141337588429451,0.029660366848902775
1742324428559228200,6.235228271484375,-0.019392098212242127,0.0018535189121961593,0.007619233698910102
1742324428569212200,6.245212158203125,-0.01731879906952381,-0.009435936865210532,0.0041585444515571
1742324428579197200,6.255197265625,-0.009696633628010749,0.01134790796637535,-0.000729446785710752
1742324428589182200,6.26518212890625,-0.0472825601786375,0.03304711407721042,0.006693625020282343
1742324428599167200,6.275167236328125,-0.10549041899740695,0.04924480016231537,0.02287855208851397
1742324428609151200,6.285151123046875,-0.14463175829648972,0.07043313414156437,0.03369019775371998
1742324428619136000,6.295135986328125,-0.1484890182465315,0.07206044308245181,0.030637970576249063
1742324428629121300,6.305121337890625,-0.12022037061750888,0.022877017718553543,0.054021184251271184
1742324428639106300,6.315106201171875,-0.06864449715912342,0.015720716223120688,0.032982232147455215
1742324428649090300,6.32509033203125,-0.005409165567159652,0.02218961997628212,0.006312735943915322
1742324428659075300,6.335075439453125,0.05868015250563621,0.0194324302226305,-0.04243765003127046
1742324428669060400,6.345060302734375,0.12459142530858516,0.009453472521901131,-0.0747387771799229
1742324428679045000,6.355045166015625,0.16693711360692978,0.0011608604729175568,-0.09035223363628611
1742324428689029000,6.365029052734375,0.17641688961386678,0.0257195476680994,-0.10329058913188055
1742324428699014100,6.37501416015625,0.18792495657801628,0.03161211283802986,-0.08928064061570912
1742324428708999200,6.384999267578125,0.17969956454634664,0.014608955588936805,-0.09143490517330355
1742324428718984200,6.394984130859375,0.1162631574243307,0.013364508485794067,-0.05909245963357389
1742324428728968200,6.40496826171875,0.07611293334364891,0.029842180556058882,-0.02894156932136975
1742324428738953200,6.414953125,0.010436638340353965,0.03564297578930854,0.02086015233765356
1742324428748938000,6.42493798828125,-0.06521160010099411,0.05611117880046367,0.07388490029694512
1742324428758923300,6.43492333984375,-0.11173837347626686,0.06788637226819992,0.09349104311866685
1742324428768907300,6.4449072265625,-0.10960837571024894,0.062358548757433886,0.10738123771268873
1742324428778892300,6.454892333984375,-0.05769114146828651,0.023764906468987462,0.07597342440825887
1742324428788877300,6.464877197265625,0.028044775745272636,-0.00365033920109272,0.02771440214659087
1742324428798862300,6.4748623046875,0.12200842307806015,-0.025855741268396376,-0.015499209826393053
1742324428808846300,6.484846435546875,0.1584703140348196,-0.06858546044826506,-0.055263430264173075
1742324428818831000,6.4948310546875,0.16127485006153583,-0.0742874714821577,-0.048977107403147965
1742324428828816100,6.504816162109375,0.1157271508514881,-0.08958324029147624,-0.023092751961620524
1742324428838801200,6.51480126953125,0.03983049060702323,-0.11319207941591738,-0.006983666608575731
1742324428848785200,6.52478515625,-0.07208616204559802,-0.15540625028908253,-0.00047412945092655716
1742324428858770200,6.534770263671875,-0.1164852757424116,-0.2601514038771391,0.01592788356724195
1742324428868755200,6.544755126953125,-0.1841068595945835,-0.438811688503623,-0.05283339923880994
1742324428878740200,6.554740234375,-0.4780687631368637,-0.7057990758806466,0.041896583690820256
1742324428888724000,6.564723876953125,-0.7871978406727314,-0.96223116697371,0.3078517510764301
1742324428898709200,6.574709228515625,-1.0630185228466986,-1.1869880168646574,0.529885094287619
1742324428908694300,6.5846943359375,-1.2453864298194646,-1.475898482236266,0.6691633627269417
1742324428918678300,6.59467822265625,-1.3223954352200031,-1.8603128101199864,0.7542036258265375
1742324428928663300,6.604663330078125,-1.3285960434257984,-2.3672031785935164,0.7840800739783793
1742324428938648300,6.6146484375,-1.4657517667531967,-2.8624475329369305,0.8833695925090461
1742324428948633000,6.624633056640625,-1.7128724241435527,-3.2651077116072176,1.0532787807293236
1742324428958617000,6.6346171875,-2.185530852669477,-3.806352185103297,1.1647341725457458
1742324428968602000,6.64460205078125,-2.7461235852360724,-4.273078300970792,1.4443914372079074
1742324428978587100,6.654587158203125,-3.2636177653104066,-4.615697560176253,1.9755758505910634
1742324428988572200,6.664572265625,-3.706145259466767,-4.85050760204792,2.551148417885601
1742324428998556200,6.67455615234375,-4.06353187969327,-5.08637387497425,3.053473670400679
1742324429008541200,6.684541259765625,-4.190746639242768,-5.3983706169009205,3.4232495243400334
1742324429018526000,6.69452587890625,-4.1271395517289635,-5.537001673477888,3.732240654709935
1742324429028511200,6.70451123046875,-3.9501170974373814,-5.5209530404746525,3.863616917853057
1742324429038495200,6.7144951171875,-3.7507214832961555,-5.457713617229461,3.7607781824082136
1742324429048480300,6.724480224609375,-3.5597067440092562,-5.296786557692289,3.501504145887494
1742324429058465300,6.73446533203125,-3.404441363495588,-4.897423082479834,3.2060598948329684
1742324429068450300,6.7444501953125,-3.311892259135842,-4.433961521366238,2.846047017756104
1742324429078434300,6.754434326171875,-3.233675631511211,-4.069631950134038,2.4717156924694774
1742324429088419000,6.764419189453125,-3.358347720840573,-3.605755963000655,2.066369489585608
1742324429098404000,6.774404052734375,-3.6376767033964392,-2.8816198509186504,1.8600339931786058
1742324429108389000,6.78438916015625,-3.8289164836108682,-2.064216257074475,1.7066057649642228
1742324429118373000,6.794373046875,-4.080901239906251,-1.210778642296791,1.4974733313150703
1742324429128358100,6.804358154296875,-4.189482902917265,-0.3699041564941406,1.1972783786021173
1742324429138343000,6.814343017578125,-3.825990951552987,0.31488252649605275,0.5441796501651406
1742324429148328000,6.824327880859375,-3.1234955933928488,0.9783341605126857,-0.4687688737414777
1742324429158312000,6.83431201171875,-2.310387943176925,1.6529133377432823,-1.5883751068592071
1742324429168297000,6.844296875,-1.5901643283635376,2.3397511080443856,-2.552161394320428
1742324429178282000,6.854281982421875,-1.1334227231547236,3.022974779501557,-3.650913201588392
1742324429188266000,6.864265869140625,-1.180772503350675,3.4196617289811373,-5.06431168076992
1742324429198251000,6.8742509765625,-1.6883718968763946,3.5587434519350527,-6.44680414955616
1742324429208236000,6.884236083984375,-2.556309746171534,4.012922220918536,-7.223819618910551
1742324429218221000,6.894220947265625,-4.039707936513424,4.651822766524553,-7.184396540060639
1742324429228205000,6.904205078125,-5.836355206930637,4.980538003540039,-6.779649618244171
1742324429238189800,6.91418994140625,-7.263474752950668,5.205169765746593,-6.464107751056551
1742324429248174800,6.9241748046875,-8.058712107694149,5.672055456089973,-6.325690629491209
1742324429258159900,6.934159912109375,-8.213287167856096,6.146335348337888,-6.4211787099123
1742324429268143900,6.944143798828125,-7.8251698938012115,6.5082865000009535,-6.557421994569897
1742324429278129000,6.95412890625,-7.058423889526725,6.79184683651626,-6.475891127830743
1742324429288114000,6.964114013671875,-6.127222067067026,7.059355617418885,-6.140058752286434
1742324429298099000,6.974098876953125,-5.260794622334838,7.267233228701353,-5.514317547982931
1742324429308083000,6.9840830078125,-4.4326381638079875,7.463410465317964,-4.448262141658366
1742324429318068000,6.99406787109375,-3.6422587704896925,7.6330223510921,-3.2338501112952827
1742324429328053000,7.004052978515625,-2.75358734524548,7.734106644085049,-2.249291231048852
1742324429338038000,7.0140380859375,-1.8323177187353372,7.786594956213236,-1.8814841929644346
1742324429348022000,7.02402197265625,-1.1072188991010188,7.849301880016922,-2.0196094919763503
1742324429358007000,7.034007080078125,-0.6946025590837002,7.84499921438694,-2.3042500249437987
1742324429367991800,7.04399169921875,-0.5176747608056291,7.727572858402133,-2.624182966697216
1742324429377976800,7.053976806640625,-0.45905192797780037,7.645562099191546,-2.8630960599735378
1742324429387960800,7.0639609375,-0.4975134683191776,7.752876811006665,-3.231723328399658
1742324429397945900,7.07394580078125,-0.8054758401632308,8.183249756988882,-3.5119454604029654
1742324429407931000,7.083930908203125,-1.5367361050367354,8.594204301273821,-3.7535172514945265
1742324429417915000,7.093914794921875,-2.6899919481694696,8.916288137450813,-4.113853369176388
1742324429427900000,7.10389990234375,-3.8595115283608434,9.24412542258799,-4.311948129852116
1742324429437885000,7.113885009765625,-4.613322647738457,9.475071774768828,-4.38759432246685
1742324429447870000,7.123869873046875,-4.620195456117392,9.510787231272458,-4.314842682249844
1742324429457854000,7.13385400390625,-4.097783693385124,9.560433597972988,-4.011726581393182
1742324429467839000,7.1438388671875,-3.2752655330061913,9.481573411747812,-3.1997137406766414
1742324429477824000,7.153823974609375,-2.3165338985860346,9.072194738477467,-1.5331845500349996
1742324429487809000,7.16380908203125,-1.2495265983641146,8.379428162649273,0.997056396639347
1742324429497793000,7.17379296875,0.05663067262992263,7.47951287433505,3.813999484986067
1742324429507778000,7.183778076171875,1.3836965838789939,6.369141064161062,6.1904965616256
1742324429517762800,7.1937626953125,2.93210676009655,5.2375382499098775,7.382568165364861
1742324429527747800,7.203747802734375,4.427007464444637,4.088637094855308,6.923183644431829
1742324429537731800,7.21373193359375,5.122719446074962,2.9220027147114274,5.779581180307269
1742324429547716900,7.223716796875,5.211605351752042,1.8986761507838963,5.219650711041688
1742324429557702000,7.233701904296875,4.805801029837132,0.8372036883354187,6.0812242860019206
1742324429567687000,7.24368701171875,4.304423871827125,-0.11087620368897914,8.020515355768799
1742324429577671200,7.253671142578125,4.404014711391926,-1.3819143766373394,10.213250440728665
1742324429587656000,7.263656005859375,5.598056153899431,-2.6723627679765225,11.542134068924188
1742324429597641000,7.273640869140625,7.590899365633725,-3.9958915911406274,12.315022813737391
1742324429607625000,7.283625,9.388591761189698,-5.100900412976742,13.306428052747249
1742324429617610000,7.29360986328125,10.318025989454984,-5.915913312292099,14.921625700080394
1742324429627595000,7.303594970703125,10.235236647087335,-6.67916387566626,16.91472610144615
1742324429637580000,7.313580078125,9.680379827824234,-6.761002200919389,18.571779023212194
1742324429647564000,7.32356396484375,8.72876767002046,-6.631864364352822,19.136819967359305
1742324429657548800,7.333548828125,7.781146627679467,-6.624456718444824,18.801276345628498
1742324429667533800,7.343533935546875,7.187482815638184,-6.19858868266642,18.134546128332612
1742324429677518800,7.353518798828125,6.913078430002927,-5.574532070448995,17.29794683563113
1742324429687502800,7.3635029296875,6.638778089264035,-4.9221769999861715,16.245855364990234
1742324429697488000,7.37348779296875,6.38745881114006,-4.261695321691036,14.829582207155227
1742324429707473200,7.38347314453125,6.050384911102056,-3.460990349191427,13.583202674645184
1742324429717458000,7.3934580078125,5.502075321525335,-2.4534184037566185,12.76042732463479
1742324429727442000,7.40344189453125,4.704650685870647,-1.4419506199270486,11.862810960912704
1742324429737427000,7.413427001953125,3.5397581809580325,-0.4810696985185146,10.761657060939074
1742324429747412000,7.423411865234375,2.2210721216499802,0.4916583125501871,9.415009812515974
1742324429757396000,7.43339599609375,0.7394014857530593,1.3816694619655607,7.887847006988525
1742324429767381000,7.443381103515625,-0.9273112447619437,2.8015818530857564,6.764886933398246
1742324429777366000,7.453365966796875,-2.608143686044216,4.111755520114302,5.9270788494288915
1742324429787350800,7.463350830078125,-4.205578882193565,5.132694312122464,5.311517093834281
1742324429797334800,7.473334716796875,-5.445597647500038,6.067725922003388,4.837034372490645
1742324429807319800,7.48331982421875,-6.337965589174628,7.051263496378064,4.091937013183534
1742324429817304800,7.493304931640625,-6.952478712499142,7.711507274264097,3.078856533460319
1742324429827290000,7.5032900390625,-7.2821151560127735,8.069044116616249,2.42127598343417
1742324429837273900,7.51327392578125,-7.398148596334457,8.509878250858188,2.1355855030223725
1742324429847259100,7.523259033203125,-7.453406957697868,8.811634753799439,2.0054490108072756
1742324429857244000,7.533243896484375,-7.341542912015319,8.942941751098632,2.05625302311033
1742324429867229000,7.54322900390625,-7.1781310499250885,9.067886812150478,2.4756366653054953
1742324429877213000,7.553212890625,-6.889957666656374,9.1210929171592,3.0341943849131465
1742324429887198000,7.563197998046875,-6.397722431001067,9.17916750498712,3.4812370184063908
1742324429897183000,7.573182861328125,-6.003726620301604,9.189175104260444,3.6584041418656703
1742324429907167000,7.5831669921875,-5.815908046707511,9.177195328131317,3.5294381547346707
1742324429917152000,7.593152099609375,-5.722222631794214,9.156221513685583,2.915428012496233
1742324429927137000,7.603136962890625,-5.689678206542134,8.886441280719637,2.030955792507529
1742324429937121800,7.613121826171875,-5.648471166884899,8.619939046511053,1.4787586939729749
1742324429947105800,7.623105712890625,-5.618283533892035,8.51664058459997,1.3812410074204207
1742324429957090800,7.6330908203125,-5.3738470010191195,8.37368991125822,1.1928534017667174
1742324429967075800,7.643075927734375,-5.175100790697336,8.247621983656286,0.8959189121544361
1742324429977061000,7.65306103515625,-5.3335290191560984,8.139147580412029,0.4027931574001908
1742324429987045000,7.663045166015625,-5.43410536262691,7.912451871412992,-0.25058511863052846
1742324429997030100,7.673030029296875,-5.273686837133765,7.632467639818787,-0.6988499873951077
1742324430007015000,7.683014892578125,-4.994311677348613,7.157569323411583,-0.6726476246461272
1742324430017000000,7.693,-4.538557621872425,6.599393588858843,-0.5629886877924204
1742324430026984000,7.70298388671875,-4.113910067799687,6.186139535459875,0.07450199101567268
1742324430036969000,7.712968994140625,-4.223642654411495,5.651069951206446,0.9460103922739624
1742324430046954000,7.7229541015625,-4.748227377268671,5.14997161013782,0.3560933655455708
1742324430056938000,7.73293798828125,-5.467009853363037,4.732050149449706,-0.6940247591957449
1742324430066923000,7.742923095703125,-6.959937211811542,4.301687724861503,-2.4296917834714056
1742324430076907800,7.75290771484375,-9.058541476178169,3.24921339238286,-5.170386037135124
1742324430086892800,7.762892822265625,-11.143631594455242,1.9327450091242788,-8.386162439340353
1742324430096876800,7.772876708984375,-12.83987670892477,0.7331552848398685,-11.380684446817636
1742324430106861800,7.78286181640625,-13.885988520634173,-0.28812545247375965,-13.719388091635704
1742324430116847000,7.79284716796875,-14.338810614311694,-1.300110538175702,-15.133924050414562
1742324430126832000,7.80283203125,-14.11149238950014,-2.110095964717865,-15.352408980429171
1742324430136815900,7.81281591796875,-13.338476218914986,-2.5076357316344975,-14.45497148040533
1742324430146800600,7.822800537109375,-11.989162381631136,-2.668267607617378,-13.010620229077338
1742324430156785700,7.83278564453125,-10.332343268620967,-2.5898387985467908,-11.452965254652499
1742324430166770700,7.842770751953125,-8.6251845459491,-2.1357178972303865,-9.845454070168733
1742324430176754700,7.852754638671875,-6.772168907099962,-1.4190478832453488,-8.38543938576281
1742324430186739700,7.86273974609375,-5.100239903241396,-0.7000707613617181,-7.413713829734921
1742324430196724700,7.872724853515625,-3.859491654616594,-0.16863807230591774,-7.113335044887662
1742324430206709500,7.88270947265625,-3.0643869863420723,-0.12534078237116336,-7.182700257536768
1742324430216693800,7.89269384765625,-2.3296210514351725,-0.1914350105255842,-7.070549796128272
1742324430226678500,7.902678466796875,-1.8107386318728327,-0.10258592972755431,-6.612409137776494
1742324430236663600,7.91266357421875,-1.6304418320856988,0.08518822020292281,-6.094114747235179
1742324430246648800,7.92264892578125,-1.718988130544871,0.123814011195302,-5.584045164203643
1742324430256632800,7.9326328125,-2.0694073959767816,0.049181671798229215,-4.879960783286393
1742324430266617900,7.942617919921875,-2.6088679086655375,0.021429741519689557,-3.80458429864794
1742324430277850600,7.9538505859375,-4.339339117863774,-0.32647944078743457,-0.4087821686819196
1742324430287834600,7.963834716796875,-4.55428944401145,-0.2291372569322586,-0.5614885123625397
1742324430297819600,7.973819580078125,-6.104431558588147,-0.15100480045974254,0.8177598599359392
1742324430307804700,7.9838046875,-7.411154792901873,0.27660920220315455,1.313952893306315
1742324430317789700,7.993789794921875,-8.033645470976829,1.0158493599146603,1.1334697771668434
1742324430327773700,8.003773681640626,-8.089937267041206,1.5133867936313152,1.3705097700476645
1742324430337758700,8.0137587890625,-7.213417467361688,1.8663953449040651,2.2781059682533145
1742324430347743700,8.02374365234375,-5.8483519341945644,2.1417986784487963,3.1404192556649444
1742324430357728800,8.033728759765625,-4.530214448679983,2.1006939301222562,3.4318750216051934
1742324430367712800,8.043712646484375,-3.372152374309301,2.296920851099491,4.000816772583127
1742324430377697800,8.05369775390625,-2.592916598556936,3.0062784962445495,4.679704168401658
1742324430387682600,8.0636826171875,-2.4395135047838092,3.4634003329426046,5.486438191932439
1742324430397666800,8.073666748046875,-2.603219673645496,3.478564584326744,6.883767579844593
1742324430407651600,8.083651611328126,-2.9382024466231464,3.589901975786686,7.8652318550765505
1742324430417636600,8.09363671875,-3.2783217057064173,3.8343852704107757,7.869385467624664
1742324430427621600,8.10362158203125,-3.894280059403181,4.169909602919221,7.341705993622541
1742324430437605600,8.113605712890624,-4.232150662776828,4.281529318451881,6.727498575246334
1742324430447590700,8.123590576171875,-3.7555636626303195,4.48037840462625,6.470246984463929
1742324430457575700,8.13357568359375,-2.711392463594675,4.883360654857754,6.524324611610174
1742324430467560700,8.143560791015625,-1.7673562940031289,4.967811208435893,6.811670896404981
1742324430477544700,8.153544677734375,-1.0600485671252011,5.1465737843930714,7.288986795347928
1742324430487529700,8.16352978515625,-0.7956061880558729,5.657022722131013,7.87524822217822
1742324430497514800,8.1735146484375,-1.0245593205928802,6.090691202527284,7.959941936862468
1742324430507499800,8.183499755859375,-1.157741464114189,6.542227348047494,7.397847567561269
1742324430517483800,8.19348388671875,-1.0400158329218625,7.0294701822429895,6.290282631501555
1742324430527468800,8.20346875,-0.5663327375233173,6.7948658920764915,4.936625212055445
1742324430537453600,8.21345361328125,-0.2462818684786558,6.466390309035778,4.055274923479557
1742324430547437600,8.2234375,0.09903320568203926,6.777012255477905,3.8390912561446426
1742324430557422600,8.233422607421875,0.7207336101621389,7.693688708978891,3.9949329752415417
1742324430567407600,8.24340771484375,1.3738777851760386,7.922889094275235,2.7468454697698355
1742324430577392600,8.253392578125,2.0055279212623836,7.58223616670668,0.8154933763086796
1742324430587376600,8.263376708984374,2.079413826206326,7.394257434114813,-0.6150514679849147
1742324430597362000,8.27336181640625,1.2297054610848426,6.7775622905761,-1.4627338802367449
1742324430607346700,8.2833466796875,-0.12060147888958453,5.967251869863271,-1.281729078310728
1742324430617331700,8.293331787109375,-1.2398562682211398,5.3502159500628705,-0.09403963517844677
1742324430627939600,8.303939697265625,-2.4298130717635154,4.896595399484038,1.8508721970796584
1742324430637923800,8.313923828125,-3.514969192138314,4.807336568841338,3.816148771974444
1742324430647908600,8.32390869140625,-4.103333144205808,5.187274628093839,5.3078708462864155
1742324430657893600,8.3338935546875,-4.252674979889393,5.328928831884265,5.686267521315813
1742324430667878700,8.343878662109375,-3.9637633454740047,5.050390122923255,5.93858983900249
1742324430677862700,8.353862548828126,-3.3262539619654414,4.816028993862867,6.7414417604029175
1742324430687847700,8.36384765625,-2.5267934365689753,4.595418449996411,7.109050499436258
1742324430697832700,8.373832763671874,-1.810765812140703,3.924838279274106,6.710756699281931
1742324430707817700,8.383817626953125,-1.013472109389305,2.7837363997936246,6.297990721660852
1742324430717801700,8.3938017578125,-0.27460078499019147,1.8627103727810084,7.021250050908327
1742324430727786800,8.403786865234375,0.2758049000829458,1.4952747983574866,8.597506849950552
1742324430737771800,8.413771728515625,0.924804230377078,1.4712334130346774,9.828437468916178
1742324430747756800,8.4237568359375,1.7663626067906617,1.932610569089651,9.67449544596076
1742324430757740800,8.43374072265625,2.3362387160092593,2.3490511435702444,7.6772870247542855
1742324430767725800,8.443725830078124,2.2315911775767803,2.1421642968907952,4.5476551205635065
1742324430777710600,8.453710693359374,1.8384809175401926,1.5017463324591516,1.0671367718204856
1742324430787695600,8.463695556640625,1.2997194930315017,0.6382751071840524,-1.7320827360481024
1742324430797679600,8.4736796875,0.6800286748081446,0.23029344123005865,-1.6386840291216969
1742324430807664600,8.48366455078125,0.48772448023259635,1.0168804565280676,2.8665321719020604
1742324430817649700,8.493649658203125,0.4592325452417135,0.9347370108485221,2.7047420657947656
1742324430827633700,8.503633544921875,1.5122352855086325,1.5332733973622321,3.5272213554680345
1742324430837618700,8.51361865234375,3.1394121244490143,1.8658327425852417,2.807054439277947
1742324430847603700,8.523603759765624,4.738167755547166,1.7393322687849402,1.1958218961834908
1742324430857588700,8.533588623046874,5.876509522664547,1.345967449465394,-1.1734367536351085
1742324430867572700,8.54357275390625,6.335229442209005,0.9722679923415184,-0.9534224220961331
1742324430877557800,8.553557861328125,6.27861732814908,1.0080185201585292,-1.0872437403038144
1742324430887542800,8.563542724609375,7.4170397592872375,2.5472338747903702,1.7815603220529854
1742324430897527800,8.57352783203125,7.357993696078657,2.616075648087263,1.675919388668984
1742324430907511800,8.58351171875,8.145370984971523,2.693098389752209,1.0237767919130623
1742324430917496600,8.59349658203125,9.13396058203876,2.174350702485442,-0.5034359902359545
1742324430927481600,8.603481689453124,9.397310489696263,1.5085522130817175,-2.251767850295454
1742324430937466600,8.613466552734375,9.296241978794336,1.7337293342113493,-2.325120379015058
1742324430947450600,8.62345068359375,7.954296624451875,1.2307125923007727,-1.0805752223253249
1742324430957435600,8.633435546875,7.846310296985506,1.511180515758693,-1.1846417459994554
1742324430967420700,8.643420654296875,7.280464466196298,1.6423191707536577,-0.008583265558630227
1742324430977405700,8.65340576171875,7.048032843893766,1.6143063975818455,0.8568922852762043
1742324430987389700,8.6633896484375,7.210072833108901,1.29488286665529,1.5627710022643209
1742324430997374700,8.673374755859374,7.7667299797922364,1.235283699608594,2.039454302392155
1742324431007359700,8.68335986328125,9.307392318361996,1.6741256371200084,0.093889997574687
1742324431017344800,8.6933447265625,9.268064516580104,1.974579679160565,0.07351400289162993
1742324431027328800,8.703328857421875,10.723111349445581,2.4593337652802467,-5.198941685011983
1742324431037313800,8.713313720703125,10.700085863167047,2.811580684530735,-5.228523753327131
1742324431047298600,8.723298583984375,9.817547826111316,1.490488733124733,-6.0439703678846355
1742324431057283600,8.73328369140625,9.829000948017836,1.9105480826243757,-6.047406187552213
1742324431067267600,8.743267578125,7.604965300387144,3.35094942728281,-2.299882038992643
1742324431077252600,8.753252685546874,7.660407201623916,3.7682919190391897,-2.2588227372430265
1742324431087237600,8.763237548828124,6.971568028372526,3.523554065132141,-4.0846734519213435
1742324431097223000,8.773222900390625,7.0672285427510735,3.9089401606574654,-3.987801808187365
1742324431107206700,8.78320654296875,6.841365777444839,2.9445909786164757,-5.560055216807127
1742324431117191700,8.793191650390625,6.976062417182326,3.3364591296374795,-5.461588412836194
1742324431127176700,8.8031767578125,6.693440822821855,2.7823075360342857,-3.5608436390846965
1742324431137162000,8.813161865234376,6.871943286538124,3.2000638692885635,-3.4984687237143515
1742324431147146000,8.82314599609375,4.3543046318054195,3.491266829511523,-1.9946280493244528
1742324431157131000,8.833131103515624,4.580118297272921,3.9062817551031705,-1.939432816325128
1742324431167116000,8.843115966796875,1.8232903626710175,3.9626720431059597,-1.4219979652225971
1742324431177100800,8.853100830078125,2.0723247447282076,4.312011550477147,-1.3293066759131849
1742324431187084800,8.863084716796875,0.7102852813839912,3.3799697700619697,-2.6472631057724354
1742324431197069800,8.87306982421875,0.9689034843444824,3.6510599165827036,-2.4941318146780134
1742324431207054800,8.883054931640626,0.756578830525279,2.7500580020755527,-2.8099823094233867
1742324431217040000,8.893039794921876,1.024158923098445,2.9722160676449536,-2.640095113839209
1742324431227024000,8.90302392578125,1.2909633551239967,3.1079929038345813,-1.511393573987484
1742324431237009200,8.913009033203124,1.5716840842992066,3.3044822751402854,-1.3537559113845228
1742324431246994000,8.922993896484375,1.3842664927214383,2.9317735826194284,0.020920915214717388
1742324431256979000,8.93297900390625,1.6867063017517328,3.1091116787314412,0.1720005344763398
1742324431266963000,8.942962890625,1.3736100741505621,2.694312733978033,1.375123109062016
1742324431276948000,8.952947998046875,1.711202445104718,2.8595038807004687,1.5194576379776
1742324431286933000,8.96293310546875,1.3676029426902532,2.9222061283290386,2.158805927351117
1742324431296918000,8.97291796875,1.0249462740838526,3.0287516093373297,2.292612924772501
1742324431306902000,8.982902099609374,-0.5092649886503815,3.3917443790078163,1.8540230623260139
1742324431316886800,8.99288671875,-0.11136048007458448,3.502491987881064,1.9943995012655853
1742324431326871800,9.002871826171875,-2.19646404235512,3.690457276469469,2.1296903075039384
1742324431336856800,9.01285693359375,-1.8127347741261124,3.744682203131914,2.2791733052238823
1742324431346840800,9.0228408203125,-1.813067367081344,1.8980600647121666,1.204431903618574
1742324431356825900,9.032825927734375,-1.4313880171194673,1.8996219072014093,1.370585173371434
1742324431366811100,9.04281103515625,-0.6801568312324583,1.7821610644251107,0.9992764107763766
1742324431376796000,9.0527958984375,-0.47077882532440124,1.8966320777356624,1.0184633418053388
1742324431386780000,9.06277978515625,-2.3521429721057414,2.877626397368312,1.5179776285529136
1742324431396765000,9.072764892578125,-1.9518249726474284,2.8320184924036265,1.6243945147454737
1742324431406750000,9.08275,-3.036757221138477,2.936852493318915,1.050804353439808
1742324431416734000,9.09273388671875,-4.844807929101586,3.3426509700149296,-0.7378063255161047
1742324431426719000,9.102718994140625,-5.423145577195286,3.6878660909324883,-1.5146172122091055
1742324431436704000,9.1127041015625,-5.126148251479864,3.6068285606682298,-1.4458084643989801
1742324431446688800,9.122688720703126,-9.451616664901374,4.662765600821375,-2.1941665790677067
1742324431456673000,9.132673095703124,-9.15828019978106,4.58254230954945,-2.1587118193268773
1742324431466657800,9.14265771484375,-13.95852534905672,5.083446004828811,-3.8323680853694677
1742324431476642800,9.152642822265625,-13.808790714663266,5.064436183932424,-3.853827637505531
1742324431486628000,9.162628173828125,-14.434596216374635,5.087972542342543,-5.169150357860326
1742324431496611800,9.17261181640625,-14.479605570924281,5.175056951555609,-5.266147673800587
1742324431506597000,9.18259716796875,-11.688821006184815,5.649221108469367,-4.087781354808807
1742324431516582000,9.192581787109376,-11.883262212789058,5.819217609646916,-4.266439885869622
1742324431526567000,9.20256689453125,-9.015710050189494,6.408910764491558,-1.0063345125943421
1742324431536551000,9.212551025390624,-9.3449455116868,6.607888445481658,-1.2473621138066053
1742324431546536000,9.222535888671874,-7.757683919027447,7.213915480011702,1.4933014524579047
1742324431556521000,9.23252099609375,-7.813785745477676,7.579954777771234,2.039484843660891
1742324431566506000,9.242506103515625,-8.230462174540758,7.893548433500528,2.046927853143215
1742324431576490000,9.252489990234375,-8.670446998476981,8.012601513904333,1.739718345493078
1742324431586475000,9.26247509765625,-8.734099094176292,8.430459846228361,1.567185019314289
1742324431596459800,9.272459716796876,-9.199543353539704,8.481874391645192,1.2511892708793282
1742324431606444800,9.28244482421875,-9.28993148047328,8.777382355585694,1.9191969607651234
1742324431616428800,9.2924287109375,-9.006348347604273,8.918637915447354,2.8893279410779473
1742324431626414000,9.3024140625,-7.677412112438678,8.659212487757205,5.356916324484348
1742324431636399000,9.312399169921875,-8.169049382200837,8.531044373005628,5.152939227771759
1742324431646384000,9.322384033203125,-8.06150612232685,8.223939494773745,5.936932134923339
1742324431656368000,9.3323681640625,-8.183806806349754,7.726062453839182,6.935782429242134
1742324431666353000,9.342352783203125,-8.61919904179871,7.500720497536658,6.857193461173773
1742324431676338000,9.352337890625,-8.70864667301178,7.543989145898818,7.983882784420252
1742324431686323000,9.362322998046874,-7.402138542753457,8.734632762661576,10.732435642629861
1742324431696307000,9.372306884765624,-7.889941348919272,8.367235036030412,10.61775946213603
1742324431706292000,9.3822919921875,-4.302135468629002,7.998820825833081,11.295274108296631
1742324431716277000,9.392277099609375,-1.681910884168744,6.8431567525148385,11.167962902635335
1742324431726261800,9.40226171875,0.9286299261450767,5.828002389127016,10.86266945773959
1742324431736245800,9.412245849609375,0.5681003317177296,5.345304212623835,10.78230938834548
1742324431746230800,9.422230712890626,3.082095661512017,5.078045022568106,10.018977576428652
1742324431756216000,9.432216064453126,2.8446891734063624,4.667660387125611,9.977559524369239
1742324431766199800,9.44219970703125,3.1710803513884542,4.859283613699675,7.528586409583688
1742324431776185000,9.45218505859375,2.997879501211643,4.4890985944375394,7.478124050325155
1742324431786170000,9.462170166015625,3.7278140704393383,4.493143193653226,5.756295581787824
1742324431796155000,9.47215478515625,5.030336930453777,4.420479231719672,4.0569744208738205
1742324431806139000,9.482138916015625,6.229802736097574,3.9654862237438557,2.478115038117766
1742324431816124000,9.4921240234375,7.433246797722577,3.6232001420155164,0.6837810861442237
1742324431826109000,9.50210888671875,7.857078943759203,3.2749797018021343,0.19065832706466315
1742324431836094000,9.512093994140624,8.581438343203068,3.0495319470375772,-0.24944077090099454
1742324431846078000,9.522077880859374,9.511906006169319,2.537157594195008,-1.0582318730920552
1742324431856063000,9.53206298828125,10.35596613627076,2.191468572155386,-1.6528759283423422
1742324431866047700,9.5420478515625,10.51555814781189,2.0058609526090323,-2.1151339588850737
1742324431876032800,9.55203271484375,9.904806422847509,1.4721356225714086,-2.278099830773473
1742324431886016800,9.562016845703125,9.916462958371639,1.5671033323802053,-2.3613185044690965
1742324431896002000,9.572001953125,7.558267846620082,1.6758131518155335,-0.270196047225222
1742324431905987000,9.581987060546876,6.3019140325844285,1.3796518385328351,0.025794695263542233
1742324431915972000,9.59197216796875,5.308624295002222,1.0250358520634473,0.40293921480737627
1742324431925956000,9.6019560546875,5.375018967407941,1.2081778121486306,0.8741538012005389
1742324431935940900,9.61194091796875,6.541458117240667,1.6521581354618071,0.6822355372026563
1742324431945926000,9.62192578125,8.174536289179324,1.7688225671634077,-0.5012996723270043
1742324431955911000,9.631910888671875,9.806434895944594,1.5979700336784124,-2.043051011709869
1742324431965895000,9.64189501953125,11.141102952760457,1.2702642659664154,-2.6540958744019267
1742324431975880000,9.6518798828125,11.833138291704653,1.2223407775357364,-2.329222407506406
1742324431985865000,9.661864990234376,12.003241175866126,1.5073936906963585,-1.2592035043783485
1742324431995849000,9.671848876953124,11.991128713268042,2.132210765892267,-0.2446562400382012
1742324432005834000,9.681833984375,12.081097153484821,2.345610939988494,-0.30895799528528
1742324432015818800,9.69181884765625,11.510860978782176,2.6682819284036756,-0.9126387224175035
1742324432025804000,9.701803955078125,11.605322054243087,2.8649650687158106,-0.9429439173754304
1742324432035788000,9.7117880859375,11.285547664052247,2.5832754945084453,-2.2225101916290817
1742324432045773000,9.72177294921875,11.376748276412487,2.7547914603382346,-2.1635219960875807
1742324432055758000,9.731758056640626,11.119511883199214,2.3363372079476714,-1.9313728439882396
1742324432065742800,9.741742919921874,11.22183360903263,2.5081395895034073,-1.8288700624994934
1742324432075727000,9.75172705078125,10.510468131196498,3.6717853092253208,-1.005711996781826
1742324432085712000,9.7617119140625,10.631090068352222,3.853740543743968,-0.9212813900131732
1742324432095697000,9.77169677734375,9.450510164964198,3.8595729031592607,-1.5287373613677917
1742324432105682000,9.781681884765625,9.588942484098672,4.046235292455553,-1.4379462065912783
1742324432115666000,9.791666015625,8.520345284336805,3.901865984487533,-0.12556143938452005
1742324432125651000,9.80165087890625,8.68533126387596,4.098038544929027,-0.014867168133705854
1742324432135636000,9.811635986328126,7.531793681192398,3.8097733917236325,2.31693005829677
1742324432145620000,9.821619873046876,7.72720460961163,4.012301458671689,2.4463075488381087
1742324432155605000,9.83160498046875,6.478111726489662,4.284401659017801,3.9122801187351346
1742324432165590000,9.841590087890625,5.722160087952018,4.22041580131948,4.170917610917985
1742324432175575000,9.851574951171875,4.767205633983016,4.213734131598472,4.746341709652543
1742324432185559000,9.86155908203125,3.8722757328659294,4.329757635048032,5.539821991595626
1742324432195544000,9.8715439453125,3.1639591212064024,4.292939770260453,6.2874810180842875
1742324432205529000,9.881529052734376,3.460610409963131,4.490006649193168,6.409075599664449
1742324432215513900,9.891513916015626,2.0765601903408766,4.288955669060349,7.109599365490674
1742324432225497900,9.901497802734376,2.396286649736762,4.46142937400639,7.246876669371128
1742324432235483000,9.91148291015625,1.3735574671804904,4.234128684851527,7.554591788455843
1742324432245468000,9.921468017578125,1.7198808416008948,4.383671596065163,7.694733249595761
1742324432255453000,9.931452880859375,0.6506067654907703,4.495526873919368,8.550031397548317
1742324432265437000,9.94143701171875,1.0246277096539735,4.623266534125805,8.676768018192051
1742324432275422200,9.951422119140625,-0.09593991584181785,4.609295876440406,9.03284180225432
1742324432285407000,9.961406982421876,0.30321167018562556,4.7116123415768145,9.14313582214117
1742324432295392000,9.97139208984375,0.04466083337292075,4.8901148052930825,9.261493321496248
1742324432305376000,9.9813759765625,-1.202155921510607,5.263111667105555,9.12642667940259
1742324432315361000,9.991361083984375,-1.5295241278313099,5.531531133112311,9.28416458750963
1742324432325346000,10.001345947265625,-1.083293102981895,5.565832631164789,9.37333340178132
1742324432335330000,10.011330078125,-3.022418899184465,5.557246004605293,9.835877263528108
1742324432345315000,10.021315185546875,-2.5675802049875256,5.547768566685915,9.921666372233629
1742324432355299800,10.0312998046875,-3.7850522074431177,4.944344992652535,9.498931958305835
1742324432365284900,10.041284912109376,-3.3184991100549697,4.897029114726186,9.558516950696706
1742324432375268900,10.051268798828126,-5.52739271813333,4.644128120368719,8.968498217159508
1742324432385254000,10.06125390625,-5.0743882536262275,4.559755308201908,9.002767566508053
1742324432395239000,10.071239013671875,-8.140318962278961,4.923865683725476,8.220065868210792
1742324432405224200,10.08122412109375,-7.757365939119458,4.817639351668953,8.240964279332756
1742324432415208200,10.091208251953125,-9.829731600379944,4.812110943636298,6.890795286524296
1742324432425193000,10.10119287109375,-9.523322887718678,4.704275422817468,6.898460706585645
1742324432435178000,10.111177978515625,-10.516751741510628,4.676211357849836,5.3224833090066905
1742324432445162000,10.121161865234376,-10.30565049200654,4.581608243569732,5.340047022747993
1742324432455147000,10.13114697265625,-10.54597432886362,4.11668303964436,2.492666418300569
1742324432465132000,10.141132080078124,-10.424978297698496,4.052351729509234,2.51199451136589
1742324432475117000,10.151116943359375,-9.81567501797676,3.8167350474297996,0.2926765399068594
1742324432485101000,10.16110107421875,-9.422920147249101,3.53565951346755,-0.06007745208293199
1742324432495086000,10.171086181640625,-9.04335968913734,3.335497591128945,-0.10190379268229006
1742324432505070800,10.18107080078125,-9.041797262126206,3.3408027117997405,-0.11512918495833874
1742324432515055900,10.191055908203126,-8.791561103063822,3.209036864817142,-0.09228723855316638
1742324432525039900,10.201039794921876,-8.83477597541213,3.2318226971209048,-0.09599515316039323
1742324432535025000,10.21102490234375,-9.879085121613741,3.586114273941517,-0.06881430076807737
1742324432545010200,10.22101025390625,-9.991784449076652,3.633841655278206,-0.05832330189198255
1742324432554995000,10.230994873046875,-10.41195748808384,3.976704075589776,-0.6513070227146148
1742324432564979200,10.240979248046875,-10.61798508758545,4.07017029479444,-0.6668909608155489
1742324432574964000,10.2509638671875,-9.359045348709822,3.6077561969071623,-0.22018325836509464
1742324432584949000,10.260948974609375,-9.655148940455913,3.7419676834762092,-0.29233927077651023
1742324432594933000,10.27093310546875,-7.577783863472938,2.8957547592550514,1.2279840441197156
1742324432604918000,10.28091796875,-7.945302001613378,3.038012774157524,1.1114587286278605
1742324432614903000,10.290903076171874,-6.190033035767078,2.8631659103393554,2.4538322452545165
1742324432624888000,10.30088818359375,-6.62575084990859,2.98251768142879,2.3226252011984587
1742324432634872000,10.3108720703125,-4.572352339446544,3.2236545882344245,3.2635674964278936
1742324432644856800,10.32085693359375,-5.066490193852782,3.301646174931526,3.1168104165405035
1742324432654841900,10.330841796875,-2.412349895787239,3.3126813636869192,3.5319779023453592
1742324432664827000,10.340826904296875,-2.9239760606110092,3.3321681544452906,3.382824282710254
1742324432674811000,10.350810791015626,-0.13776698709353805,3.5065877327620982,3.2349446285337207
1742324432684796200,10.360796142578126,-0.6353729560017586,3.4680069499552246,3.0885324165612458
1742324432694781200,10.37078125,1.1797544123493133,3.314285291752219,2.676727392926812
1742324432704765200,10.38076513671875,0.6930205505892634,3.224565857860446,2.5116467208415267
1742324432714750000,10.39075,3.0207971432015297,3.112405459579825,2.1315219068452715
1742324432724735000,10.40073486328125,2.5488459861621258,2.9702853918433187,1.952624744722992
1742324432734720000,10.410719970703125,5.788719011008739,2.5559604943424463,0.8014813636995851
1742324432744704000,10.4207041015625,5.401696546453238,2.393703062984347,0.6369958810284734
1742324432754689000,10.43068896484375,7.8514254480421535,0.9424088606506585,-1.0499028014902025
1742324432764674000,10.440674072265624,7.6123372904598705,0.8280997599035501,-1.2508826891481875
1742324432774658800,10.450658935546874,6.88681586149931,0.4242769671946764,-0.3778476628445089
1742324432784642800,10.460642822265624,6.773026985234022,0.36940672836601735,-0.6566304827596992
1742324432794627800,10.4706279296875,6.227120365145802,-0.8730775502711534,-1.068455599334091
1742324432804612900,10.48061279296875,6.261351136049628,-1.128136599445343,-0.9708422703873365
1742324432814596900,10.490596923828125,6.015681846511364,-1.4804226816624402,-0.48641657597180454
1742324432824582100,10.50058203125,5.446651540467143,-1.488360488924384,0.3015926176164299
1742324432834567200,10.510567138671876,4.7217374297499655,-1.1656389393657445,1.0364699770085513
1742324432844552000,10.520552001953124,4.868018124297261,-1.1127058060795068,0.7915994366325437
1742324432854536000,10.530535888671874,2.2663296057417988,-1.0873913320809603,1.6038379027985035
1742324432864521000,10.54052099609375,2.402580489183962,-1.0497013606339693,1.4048359641499817
1742324432874506000,10.550506103515625,2.07654411598891,-2.5627842028826473,1.1954841886617242
1742324432884491000,10.560490966796875,2.128284824620187,-2.5663088698774574,1.0636350473098457
1742324432894475000,10.57047509765625,3.5485365306973455,-3.1600521768957375,1.9327328802950678
1742324432904460000,10.5804599609375,3.53580856654942,-3.1759757222145795,1.898457685727626
1742324432914444800,10.59044482421875,4.840312078987061,-2.909837060621381,2.6196032376915217
1742324432924429000,10.600428955078126,4.816577859917283,-2.903784336453676,2.693836640898883
1742324432934413800,10.610413818359374,5.149949982827901,-1.3948153592646122,1.2672986941590905
1742324432944398800,10.62039892578125,5.13350212137401,-1.3724275863677262,1.4038333629786968
1742324432954384100,10.630384033203125,5.505933165997266,-0.27790391818881033,-2.720608035707474
1742324432964368000,10.640367919921875,5.487159491944313,-0.2579465873092413,-2.564547705423832
1742324432974353200,10.650353271484375,6.120255735185742,-0.47450376413166523,-5.7201037399441
1742324432984338000,10.660337890625,6.124214117422699,-0.4486182122468948,-5.569129334622621
1742324432994323000,10.670322998046874,5.6645507795482875,-0.6291770239710808,-4.9990129869073625
1742324433004307000,10.680306884765624,5.729959363526105,-0.5790969420284032,-4.880849256558716
1742324433014292000,10.6902919921875,3.486570780649781,-0.5735083282411099,-3.1976176451802254
1742324433024277000,10.700277099609375,3.5705136769667267,-0.5205266796380281,-3.099608521848917
1742324433034261000,10.710260986328125,1.9301792502894997,-0.8744114292234182,-2.425597207634151
1742324433044246000,10.72024609375,1.9822218644768,-0.8399830899208783,-2.307057337449491
1742324433054231000,10.73023095703125,1.641039067815244,-1.0774018529862164,-2.312699581120163
1742324433064215800,10.7402158203125,1.6673057279720902,-1.0580483332186936,-2.1496382860332726
1742324433074199800,10.75019970703125,1.2282345117494464,-1.2117530402868986,-2.828796315486729
1742324433084184800,10.760184814453124,1.2545026332110165,-1.1992927871644496,-2.634334066094458
1742324433094170000,10.770170166015625,0.2397761398464441,-1.5906956587612628,-3.2166289273813367
1742324433104155100,10.780155029296875,0.2568529468536377,-1.5917916373044252,-3.0149060393363234
1742324433114139100,10.79013916015625,-0.30399492951780555,-2.795334483128786,-4.231295799513161
1742324433124124200,10.800124267578125,-0.30003742406368256,-2.8105069178193807,-4.041790880267322
1742324433134109200,10.810109130859376,-0.5123477570965885,-2.5238608902484176,-4.286209292961657
1742324433144093200,10.82009326171875,-0.8002829476952552,-2.078606601476669,-3.870784617525339
1742324433154078200,10.830078125,-1.2788286806941032,-1.7250491841495037,-3.105923111823201
1742324433164063200,10.840063232421874,-1.242791152629256,-1.733002773502469,-2.9575492443889377
1742324433174048300,10.85004833984375,-1.8309961147427558,-1.7403648267030716,-2.4881521557465196
1742324433184032300,10.8600322265625,-2.2386960411459205,-2.1107558899313212,-2.1836527838379145
1742324433194017300,10.870017333984375,-2.3865906006306408,-2.3228140017688275,-1.7191833608560263
1742324433204002000,10.880001953125,-2.36126560523808,-2.1250036109924317,-1.3956551710896192
1742324433213986000,10.889986083984375,-2.4583190352797506,-1.7151707642138003,-0.8708896848380565
1742324433223971000,10.89997119140625,-2.4277964712440965,-1.737100271949172,-0.7350731011599302
1742324433233956000,10.9099560546875,-2.988330751621723,-0.8687760536849498,-1.1045531870231031
1742324433243941400,10.91994140625,-2.9457810651838776,-0.8964064034104346,-0.9483885195821523
1742324433253925000,10.929925048828125,-3.7825656513243913,-0.1396995625913143,-2.0862752364084125
1742324433263910400,10.939910400390625,-3.7355382349506017,-0.16997604291141033,-1.9353347333565354
1742324433273895200,10.949895263671875,-4.996802909642458,-0.0083393738001585,-2.6404893738538027
1742324433283880200,10.959880126953125,-4.9693613604873415,-0.0320984350502491,-2.5438351722627877
1742324433293864200,10.9698642578125,-5.005891055983304,0.5853548333793879,-0.09504355152398347
1742324433303849200,10.97984912109375,-4.225601679524779,1.0731570550233125,1.6750161562189458
1742324433313834200,10.989834228515624,-3.6832553822666405,1.5073603729486464,2.6997484952911734
1742324433323818200,10.999818359375,-3.7205683370947837,1.452351017910242,2.7943109852999446
1742324433333803300,11.00980322265625,-3.345882207021117,1.9034253911375998,2.827994351454079
1742324433343788000,11.0197880859375,-3.3701837045848366,1.8235867152690886,2.982665273205936
1742324433353773000,11.02977294921875,-3.1289100196570154,2.4248522344857455,1.8487886688038706
1742324433363757000,11.039757080078125,-3.1434178529590366,2.3244226060092448,2.0369290216982363
1742324433373742000,11.0497421875,-3.440138407559693,3.344783305868506,0.4500114201709628
1742324433383727000,11.05972705078125,-3.4640941604256628,3.2305759119302033,0.6334238677605987
1742324433393712400,11.06971240234375,-3.4426612040355797,2.9673563526540994,-0.46795273505300283
1742324433403696400,11.0796962890625,-3.5022324601620434,2.851341032510996,-0.3298632380068302
1742324433413681200,11.08968115234375,-1.8879186099261045,2.345959315034747,0.9582406360328197
1742324433423666200,11.099666259765625,-1.9785808776259421,2.23134918551445,1.0549755016446114
1742324433433650200,11.109650146484375,0.15283347719162702,2.4030612584382296,2.6309914776682852
1742324433443635200,11.11963525390625,0.045560558691620824,2.2804110303252934,2.713022695145011
1742324433453620200,11.1296201171875,0.7002642381072044,2.4510329699248072,2.555776369947195
1742324433463605200,11.139605224609374,0.8611164788424969,2.6315187164127827,1.7937544715851543
1742324433473589200,11.14958935546875,0.732065151515603,2.7555419864445923,0.9564414776563643
1742324433483574300,11.15957421875,0.3191942522153258,2.883777905735373,0.37738369859457016
1742324433493559000,11.16955908203125,-0.15945318759232757,3.049969169411063,0.5258247860461474
1742324433503543000,11.17954296875,-0.27765900351703166,3.2487481129586695,1.4810522117376326
1742324433513528000,11.189528076171875,-0.2353495555758476,3.397347021320462,2.4861475379258393
1742324433523513000,11.19951318359375,0.5145172100901604,3.5583909852355715,4.177199759927392
1742324433533498400,11.209498291015626,0.3361088543981314,3.4538498297870155,4.134343784019351
1742324433543482400,11.219482421875,1.5010755935907363,3.378359412255883,4.8359763878703115
1742324433553467400,11.22946728515625,3.0780496009916067,3.040598114475608,5.464040482163429
1742324433563452200,11.2394521484375,5.075239902019501,2.3098761942625043,5.843862221559882
1742324433573437200,11.249437255859375,7.094611055195331,1.6131804622918366,6.207247205418348
1742324433583421200,11.259421142578125,8.841522527062892,1.2317512876987458,6.5482824103027575
1742324433593406200,11.26940625,10.127743071573972,1.0252888039112091,6.775246414849161
1742324433603391200,11.27939111328125,11.029129601484536,0.7963526225090026,6.58242608744502
1742324433613375200,11.289375244140626,11.675675108885764,0.5782815339922904,5.877324930700659
1742324433623360300,11.2993603515625,11.883823353803157,0.3490758879989385,5.113945772510767
1742324433633345000,11.309344970703124,12.01996083999872,0.1331295365512371,4.314665864378213
1742324433643330000,11.319330078125,11.94381634247303,0.12589432460069655,3.6399464018940924
1742324433653314000,11.32931396484375,11.835574578940868,0.33099837951660155,3.0407436604261395
1742324433663299000,11.339299072265625,11.464528266674279,0.46295828776657577,2.507297877982259
1742324433673284400,11.349284423828125,10.641363625085352,0.6298252587467431,1.8892168330430983
1742324433683268400,11.359268310546875,9.476223282891512,0.8355325402528047,1.0620616605132818
1742324433693253400,11.36925341796875,8.323946513924001,1.1415455315947531,0.5925421145349741
1742324433703238100,11.379238037109374,7.309745505738258,1.321485334637761,0.42323301109969613
1742324433713223200,11.38922314453125,6.4108542997747655,1.2545207533895968,0.49794133834242815
1742324433723207200,11.399207275390625,5.744634954610467,1.281854165995121,0.9260919321000576
1742324433733192200,11.409192138671875,5.225384286257625,1.5240917275190353,1.4043629398107529
1742324433743177200,11.41917724609375,4.87702794470489,1.755552458962798,1.5350702176511286
1742324433753161200,11.4291611328125,4.589536113959551,2.1191981395840642,1.561800403666496
1742324433763146200,11.439146240234376,4.343537738597393,2.548590257835388,1.7173282345086336
1742324433773131000,11.449131103515626,4.018973776042461,2.8582810609072444,2.0220532318666575
1742324433783116000,11.459115966796874,3.227389098587632,3.1453666489392518,2.430180736032128
1742324433793100000,11.46910009765625,2.137248760059476,3.0793080766201015,2.93478240904659
1742324433803085000,11.4790849609375,1.096408751273155,3.0365678360462187,3.2230539919927716
1742324433813070300,11.4890703125,0.20106091700494289,3.2259827389210463,3.222875128294527
1742324433823055400,11.499055419921875,-0.41819209432303905,3.4639842703104016,3.1082346036359665
1742324433833039400,11.509039306640625,-0.582122427329421,3.5982594697654244,2.7071765994653103
1742324433843024100,11.519024169921876,-0.55702130382061,3.4218659610271454,2.014944861166179
1742324433853009200,11.529009033203126,-0.6498273055508732,3.200085496598482,1.578186598061025
1742324433862993200,11.5389931640625,-0.7543468336895108,3.056252195203304,1.3872896399348973
1742324433872978200,11.548978271484375,-0.8679413564264774,2.603848619198799,1.2219696061357854
1742324433882963200,11.558963134765625,-1.0619041318640112,2.350751225486398,1.5921791753172874
1742324433892948200,11.5689482421875,-1.2755638336792587,2.5075159046471116,2.190124902461469
1742324433902932200,11.57893212890625,-1.4729919471397994,2.41137842040658,2.040140969482064
1742324433912917200,11.588917236328125,-1.9417292566992341,1.9620581973701714,1.1841641916155814
1742324433922902000,11.598902099609376,-2.5108511865496634,1.7333020487099884,0.23153642702847718
1742324433932886000,11.608885986328126,-2.8039702095270154,1.5526327623486518,-0.5863248474553228
1742324433942871000,11.61887109375,-2.900037551140785,1.33519471103847,-1.1660133256360887
1742324433952856300,11.628856201171875,-2.7252935631752013,1.0298422294318674,-1.279136723729968
1742324433962841300,11.63884130859375,-2.455256140577793,0.6954319956451654,-1.197947217774391
1742324433972825300,11.648825439453125,-2.394200344981998,0.3948737625777721,-1.136295940503478
1742324433982810400,11.658810302734375,-2.3775591529130935,0.03488426637649536,-1.05422234518975
1742324433992795100,11.668795166015625,-2.410488778090477,-0.3269605023026466,-0.7666410825952887
1742324434002779100,11.678779052734376,-2.516456751471758,-0.3712468032747507,-0.4231821576952934
1742324434012764200,11.68876416015625,-2.7974130429685116,-0.13936696963608264,-0.19282734166681764
1742324434022749200,11.698749267578124,-3.182479697281122,0.06084931323826313,-0.19593407551050185
1742324434032734200,11.708734130859375,-3.586328208953142,0.28435061011016366,-0.45438978138566016
1742324434042718200,11.71871826171875,-3.975183734154701,0.3163064218193292,-0.9682610947877168
1742324434052703200,11.728703125,-4.209633126020432,0.03327332404851913,-1.5604285307914019
1742324434062688000,11.73868798828125,-4.318094085261225,-0.20146189902126788,-2.067189719927311
1742324434072672300,11.74867236328125,-4.432355839735269,-0.36971184879243374,-2.480407240708172
1742324434082657000,11.758656982421876,-4.52819638685584,-0.5854530330568551,-2.82648160880357
1742324434092642300,11.768642333984374,-4.560553180581331,-0.6396966644197702,-3.0489021247014403
1742324434102627300,11.77862744140625,-4.627834572693705,-0.6165057584464549,-3.2526521346598862
1742324434112611300,11.788611328125,-4.696990526506305,-0.6156903504103421,-3.4590614269554614
1742324434122596400,11.798596435546875,-4.815630349934101,-0.5551315445512532,-3.599948445765674
1742324434132581000,11.8085810546875,-4.99372131024003,-0.36440731264352794,-3.6864798972710964
1742324434142566400,11.81856640625,-5.171477924025059,-0.2329313885182142,-3.9378532436698674
1742324434152550400,11.82855029296875,-5.273668132433295,-0.09613046997785568,-4.280770024517178
1742324434162535400,11.838535400390626,-5.249592260318995,0.024150106394290924,-4.719356672093272
1742324434172520400,11.8485205078125,-5.03825778658092,0.1926075614362955,-5.179952322381735
1742324434182504400,11.85850439453125,-4.674751222169399,0.4365560185313225,-5.562467538645863
1742324434192489500,11.868489501953125,-4.2158208747446535,0.5697936916321515,-5.983695055142045
1742324434202474200,11.87847412109375,-3.6932460304051635,0.6937216845959424,-6.287541223838925
1742324434212459300,11.888459228515625,-3.132831577014923,0.9386942240417003,-6.385246395787596
1742324434222443300,11.898443359375,-2.5927315973788496,1.086619763186574,-6.390463253653049
1742324434232428500,11.908428466796876,-2.249137355661392,1.0279086310207843,-6.316058293271064
1742324434242413600,11.91841357421875,-2.0959318302869794,0.9387140977859496,-6.18208470711112
1742324434252397600,11.9283974609375,-2.1566811902821064,0.6907920608848332,-6.146021460083126
1742324434262382600,11.938382568359375,-2.4316332729279995,0.3101052290916443,-6.157217976880073
1742324434272367400,11.948367431640625,-2.733833427983522,0.18800269798934457,-6.012482758209109
1742324434282352400,11.958352294921875,-3.0740158154308794,0.30415070460140703,-5.808544239941239
1742324434292336400,11.96833642578125,-3.487643378317356,0.45307051548063754,-5.609651899147034
1742324434302321400,11.9783212890625,-3.852037831479311,0.5652829362094401,-5.373230330425501
1742324434312306400,11.988306396484376,-4.042768493127823,0.7429173849195242,-4.8469259441688655
1742324434322290400,11.99829052734375,-4.100078526324033,0.8613724994301796,-4.186587181475758
1742324434332275500,12.008275390625,-4.080700456637143,0.7312760469645261,-3.6835704395651816
1742324434342260500,12.018260498046875,-3.929912513798475,0.6647650547027587,-3.059107876895368
1742324434352245200,12.028245361328125,-3.7298446994841097,0.6665303108096122,-2.3053718685805795
1742324434362229200,12.038229248046875,-3.505021214097738,0.7015846730560064,-1.6644015309631823
1742324434372214500,12.048214599609375,-3.337752968840301,0.7323883921205997,-1.2435013467252254
1742324434382199600,12.058199462890625,-3.3765701907515524,0.60392626285851,-0.9531740002930164
1742324434392183600,12.06818359375,-3.59100409180969,0.6340355699181557,-0.7762301641955971
1742324434402168600,12.07816845703125,-3.7042344574093815,0.8861194026738405,-0.43468204135298727
1742324434412153600,12.088153564453124,-3.785525377912819,1.1634569191515445,-0.197489195998013
1742324434422138400,12.098138427734375,-3.803356510418653,1.4310849425196648,-0.17334347351789473
1742324434432122400,12.108122314453125,-3.5208240556463597,1.6074223371565342,0.2654839970767498
1742324434442107400,12.118107421875,-3.2389792908772823,1.78456812556684,0.9386474622905254
1742324434452092400,12.128092529296875,-2.8487971932470795,1.9940841517060994,1.4384867432087658
1742324434462076400,12.138076416015625,-2.316283138695359,1.9933131673336029,2.1120330702602863
1742324434472061400,12.1480615234375,-1.6944143919110297,2.0949936726540326,2.9512945679083464
1742324434482046500,12.15804638671875,-1.044951535758376,2.593434777212143,3.268872617098689
1742324434492031200,12.16803125,-0.6399617450967431,3.054725424027443,3.1189830844044684
1742324434502015200,12.17801513671875,-0.8102478768706322,3.4471973861604925,2.618068867731094
1742324434512000500,12.18800048828125,-1.550650064098835,3.59912514668405,2.0699856342561542
1742324434521985500,12.197985595703125,-2.1609020228475333,3.504359535318613,2.004580411279201
1742324434531969500,12.207969482421875,-2.438957916727662,3.93624405490756,2.3924825812786814
1742324434541954600,12.21795458984375,-2.5910516814678908,4.484254369276762,3.565298280405998
1742324434551939600,12.227939697265626,-2.690069689580798,4.804171382808685,5.313354246133565
1742324434561924400,12.23792431640625,-2.6316701075822113,5.251493125504255,6.408811395770311
1742324434571908400,12.247908447265624,-2.3498043000251054,5.547036745280027,6.980100294396281
1742324434581893400,12.257893310546875,-1.9926696087330578,5.592749279662966,6.858479993852972
1742324434591878400,12.26787841796875,-1.5026245765984056,5.387153057315945,5.912009875112772
1742324434601862400,12.2778623046875,-1.0016343720793723,5.006377962717414,4.791339373764395
1742324434611847400,12.287847412109375,-0.36425416790843007,4.710559617653489,4.477410494731366
1742324434621832400,12.29783251953125,0.4486825096547603,4.745344515308737,5.349272531732916
1742324434631817200,12.307817138671876,1.1062211202353238,4.451155817273259,6.976121453893184
1742324434641801500,12.317801513671874,1.8020313015431164,3.468675642997026,8.28234375294745
1742324434651786200,12.3277861328125,2.894110499179363,2.423110943776369,9.089246995565295
1742324434661771500,12.337771484375,4.553177683377266,1.7620578953340649,9.380769689261912
1742324434671755500,12.347755615234375,6.505786499878764,1.4791551459446548,8.8278914765954
1742324434681740500,12.357740478515625,8.04809543661177,1.7057032631665467,7.7359116476804015
1742324434691725600,12.3677255859375,8.11954622336328,1.974104901255667,6.523823091828823
1742324434701710300,12.37771044921875,6.984620402169227,1.9613027028277514,5.400281418958306
1742324434711694600,12.387694580078126,5.501887105476856,1.8243854644313453,4.543486310446262
1742324434721679400,12.397679443359374,4.278079470258951,1.920159960578382,4.0499826622903345
1742324434731664400,12.407664306640624,3.5829157701611516,2.1564196167364713,3.7075551262646913
1742324434741648400,12.4176484375,3.25883696077466,2.35236976659894,3.5234444672778245
1742324434751633400,12.42763330078125,3.739782740652561,2.266046112625301,3.6807089126542207
