time,seconds_elapsed,z,y,x
1742324422348709600,0.024709716796875,0.03131476417183876,0.36918905377388,0.20193427801132202
1742324422358693600,0.034693603515625,0.01999877393245697,0.3392142951488495,0.1995747983455658
1742324422368678700,0.0446787109375,0.013819442130625248,0.2681718170642853,0.1824493408203125
1742324422378663400,0.054663330078125,0.012724594213068485,0.18582947552204132,0.1564289927482605
1742324422388648400,0.0646484375,0.01516005489975214,0.09907807409763336,0.11736229062080383
1742324422398633500,0.074633544921875,0.008027201518416405,0.018394889310002327,0.06760954856872559
1742324422408617500,0.084617431640625,-0.00040676374919712543,-0.04140399396419525,0.019040152430534363
1742324422418602500,0.0946025390625,-0.007526127155870199,-0.08145739138126373,-0.022204462438821793
1742324422428587800,0.104587890625,-0.0064057353883981705,-0.0997820720076561,-0.053508587181568146
1742324422438572500,0.114572509765625,0.0032284443732351065,-0.07890203595161438,-0.07437711954116821
1742324422448556500,0.124556640625,0.008696447126567364,-0.021074950695037842,-0.08613257855176926
1742324422458541600,0.13454150390625,0.011611277237534523,0.04334638640284538,-0.08943622559309006
1742324422468526600,0.144526611328125,0.012830553576350212,0.10112466663122177,-0.08761921525001526
1742324422478511600,0.15451171875,0.009991276077926159,0.12955982983112335,-0.075870081782341
1742324422488495600,0.16449560546875,0.01177213154733181,0.13689950108528137,-0.06460784375667572
1742324422498480600,0.174480712890625,0.006728370673954487,0.12822744250297546,-0.05506334453821182
1742324422508465400,0.18446533203125,0.00041827699169516563,0.09703490883111954,-0.049781762063503265
1742324422518450400,0.194450439453125,0.00039963494054973125,0.08038562536239624,-0.04600540176033974
1742324422528434400,0.204434326171875,0.020225243642926216,0.09022962301969528,-0.040175095200538635
1742324422538419500,0.21441943359375,0.0435209795832634,0.11443456262350082,-0.028783954679965973
1742324422548404500,0.224404541015625,0.06297456473112106,0.13531002402305603,-0.021627776324748993
1742324422558389800,0.2343896484375,0.0833434909582138,0.1586446464061737,-0.014176784083247185
1742324422568373800,0.244373779296875,0.09864270687103271,0.18525069952011108,-0.010820204392075539
1742324422578358500,0.254358642578125,0.1026131734251976,0.19213660061359406,-0.015481106005609035
1742324422588343600,0.264343505859375,0.09423380345106125,0.17557120323181152,-0.02750421315431595
1742324422598328600,0.27432861328125,0.08553017675876617,0.14756165444850922,-0.045557182282209396
1742324422608313600,0.284313720703125,0.077632836997509,0.12723374366760254,-0.05772995576262474
1742324422618297600,0.294297607421875,0.07752063125371933,0.1147204115986824,-0.06015656888484955
1742324422628282600,0.30428271484375,0.08290661126375198,0.11244846880435944,-0.04922402650117874
1742324422638267400,0.314267333984375,0.09451000392436981,0.11349509656429291,-0.030043672770261765
1742324422648252400,0.32425244140625,0.10722233355045319,0.09931749105453491,-0.004682391881942749
1742324422658236400,0.334236328125,0.11440329998731613,0.07535954564809799,0.016501139849424362
1742324422668221400,0.344221435546875,0.1185450479388237,0.055954691022634506,0.01284781564027071
1742324422678206700,0.354206787109375,0.11235214024782181,0.05732068419456482,-0.010311337187886238
1742324422688191700,0.364191650390625,0.09139945358037949,0.055063121020793915,-0.05307132005691528
1742324422698175700,0.37417578125,0.05505808815360069,0.039375077933073044,-0.10419759899377823
1742324422708160500,0.384160400390625,0.016597779467701912,0.0042615653946995735,-0.15076030790805817
1742324422718145500,0.3941455078125,-0.014575250446796417,-0.03442662954330444,-0.18566983938217163
1742324422728130600,0.404130615234375,-0.03311191871762276,-0.055682115256786346,-0.20526671409606934
1742324422738115600,0.414115478515625,-0.038990456610918045,-0.04245295375585556,-0.20902597904205322
1742324422748099600,0.424099609375,-0.02861345000565052,-0.01464608870446682,-0.1968550682067871
1742324422758084600,0.434084716796875,-0.0031527080573141575,0.0018555636052042246,-0.16323713958263397
1742324422768069600,0.444069580078125,0.03006197139620781,-0.0005535318632610142,-0.11614206433296204
1742324422778054400,0.454054443359375,0.048057712614536285,-0.006657538004219532,-0.06840716302394867
1742324422788038400,0.464038330078125,0.05669248104095459,0.017302654683589935,-0.042262908071279526
1742324422798023400,0.4740234375,0.04921230301260948,0.0657448098063469,-0.03346665948629379
1742324422808008700,0.4840087890625,0.02471122145652771,0.10669836401939392,-0.038908831775188446
1742324422817993700,0.49399365234375,-0.001975406426936388,0.12365715950727463,-0.04066775366663933
1742324422827977700,0.503977783203125,-0.02086627297103405,0.11336351186037064,-0.0338713675737381
1742324422837962800,0.513962646484375,-0.03042047843337059,0.07972940802574158,-0.02093140408396721
1742324422847947500,0.523947509765625,-0.03356647118926048,0.04080464318394661,-0.009153573773801327
1742324422857932500,0.5339326171875,-0.033349886536598206,0.014953951351344585,-0.00042294198647141457
1742324422867916500,0.54391650390625,-0.03397839516401291,0.014422651380300522,-0.002440819051116705
1742324422877901600,0.553901611328125,-0.03735283017158508,0.03137349709868431,-0.01264466717839241
1742324422887886600,0.563886474609375,-0.04678761214017868,0.05201726034283638,-0.031872157007455826
1742324422897871600,0.57387158203125,-0.0636868104338646,0.07236482203006744,-0.053585536777973175
1742324422907856400,0.5838564453125,-0.08024901151657104,0.10315096378326416,-0.07085107266902924
1742324422917840400,0.59384033203125,-0.09630275517702103,0.12241310626268387,-0.08142882585525513
1742324422927825400,0.603825439453125,-0.10258941352367401,0.12213000655174255,-0.07513044774532318
1742324422937810700,0.613810791015625,-0.09514689445495605,0.10687898099422455,-0.05926487594842911
1742324422947795700,0.623795654296875,-0.07931440323591232,0.08225405961275101,-0.0373888723552227
1742324422957779700,0.63377978515625,-0.0634823590517044,0.04914957657456398,-0.010399657301604748
1742324422967764700,0.6437646484375,-0.04533904418349266,0.021011682227253914,0.015305439941585064
1742324422977749500,0.65374951171875,-0.027768531814217567,0.012711109593510628,0.03399134427309036
1742324422987734500,0.663734619140625,-0.012545902281999588,0.023827411234378815,0.046711936593055725
1742324422997719600,0.673719482421875,-0.0038598862010985613,0.0416247621178627,0.052297983318567276
1742324423007703600,0.68370361328125,-0.004277469590306282,0.05394374579191208,0.05730179697275162
1742324423017688600,0.6936884765625,-0.010824175551533699,0.0434160977602005,0.057002682238817215
1742324423027673600,0.703673583984375,-0.01811031810939312,0.023411497473716736,0.05268117040395737
1742324423037658400,0.713658447265625,-0.018599916249513626,0.006978409830480814,0.04554193839430809
1742324423047642400,0.723642333984375,-0.017322929576039314,0.002439318224787712,0.03196248412132263
1742324423057627600,0.733627685546875,-0.013921801000833511,0.007191923446953297,0.015907056629657745
1742324423067612700,0.74361279296875,-0.01967502571642399,0.00567685067653656,0.001687374897301197
1742324423077597700,0.75359765625,-0.029465381056070328,0.0006118158344179392,-0.008679615333676338
1742324423087581700,0.763581787109375,-0.040518034249544144,0.002196929417550564,-0.014752687886357307
1742324423097566700,0.773566650390625,-0.045926276594400406,0.007350535597652197,-0.02037876285612583
1742324423107551500,0.783551513671875,-0.04511667788028717,0.007855470292270184,-0.022008616477251053
1742324423117536500,0.79353662109375,-0.03907911852002144,0.010951200500130653,-0.02037864178419113
1742324423127520500,0.8035205078125,-0.030926648527383804,0.021896526217460632,-0.021766947582364082
1742324423137506600,0.813506591796875,-0.021094391122460365,0.043793465942144394,-0.0255822092294693
1742324423147491300,0.8234912109375,-0.017247986048460007,0.058590520173311234,-0.029665101319551468
1742324423157476600,0.8334765625,-0.01570352166891098,0.05507547780871391,-0.03248603269457817
1742324423167461600,0.843461669921875,-0.01906602829694748,0.04264543950557709,-0.03097655437886715
1742324423177445600,0.853445556640625,-0.022463928908109665,0.0268788393586874,-0.02578669786453247
1742324423187430700,0.8634306640625,-0.0200207456946373,0.005087790545076132,-0.016373487189412117
1742324423197415700,0.873415771484375,-0.020847957581281662,-0.009466692805290222,-0.01183745451271534
1742324423207400400,0.883400390625,-0.023196864873170853,-0.020142504945397377,-0.002227170392870903
1742324423217384700,0.893384765625,-0.023059386759996414,-0.021071795374155045,0.00784358847886324
1742324423227369500,0.903369384765625,-0.019387420266866684,-0.0065743448212742805,0.015608301386237144
1742324423237354500,0.9133544921875,-0.015661800280213356,0.011953174136579037,0.020334921777248383
1742324423247339500,0.923339599609375,-0.01156399492174387,0.02944881096482277,0.025607716292142868
1742324423257323500,0.933323486328125,-0.005090358201414347,0.03942745551466942,0.030097994953393936
1742324423267308500,0.94330859375,0.004382239188998938,0.04436122626066208,0.03637346625328064
1742324423277293600,0.95329345703125,0.010935121215879917,0.04604554921388626,0.04184022545814514
1742324423287278600,0.963278564453125,0.016362642869353294,0.03874289616942406,0.044420026242733
1742324423297262600,0.9732626953125,0.014696195721626282,0.02585607022047043,0.04113359376788139
1742324423307247600,0.98324755859375,0.020745033398270607,0.011380192823708057,0.02961062826216221
1742324423317232600,0.993232666015625,0.02033134549856186,0.002573592821136117,0.016745273023843765
1742324423327217700,1.0032177734375,0.013108586892485619,-0.008375461213290691,0.003952512983232737
1742324423337202400,1.013202392578125,0.005717606283724308,-0.02311539277434349,-0.004692192189395428
1742324423347186700,1.023186767578125,0.003856322728097439,-0.030354661867022514,-0.010831577703356743
1742324423357171500,1.03317138671875,0.003976131789386272,-0.017227452248334885,-0.018552476540207863
1742324423367156500,1.043156494140625,0.0036227302625775337,0.00458277203142643,-0.026373382657766342
1742324423377141500,1.0531416015625,-0.00015517976135015488,0.017542406916618347,-0.03420938923954964
1742324423387125500,1.06312548828125,0.0026185025926679373,0.015950102359056473,-0.04568122327327728
1742324423397110500,1.073110595703125,-0.0027798579540103674,0.013730259612202644,-0.058813825249671936
1742324423407095600,1.083095458984375,-0.005583367310464382,0.015458917245268822,-0.06657347083091736
1742324423417080600,1.09308056640625,-0.004763031378388405,0.010834542103111744,-0.0678638368844986
1742324423427064600,1.103064697265625,-0.010311194695532322,0.013541379012167454,-0.06043335050344467
1742324423437049600,1.113049560546875,-0.012861978262662888,0.015596880577504635,-0.0398380346596241
1742324423447034600,1.12303466796875,-0.009651005268096924,0.014674628153443336,-0.009682794101536274
1742324423457019600,1.13301953125,-0.007206263951957226,0.012387269176542759,0.018676307052373886
1742324423467003600,1.143003662109375,-0.004453620873391628,0.010422389023005962,0.04144366830587387
1742324423476988700,1.15298876953125,-0.0029172024223953485,0.013918556272983551,0.05542350560426712
1742324423486973400,1.162973388671875,0.00028524897061288357,0.01879240572452545,0.05566132441163063
1742324423496958500,1.17295849609375,0.0003622141666710377,0.022249989211559296,0.049312081187963486
1742324423506943500,1.182943603515625,-0.0025797798298299313,0.0211879201233387,0.040159329771995544
1742324423516927500,1.192927490234375,-0.004672866780310869,0.018514320254325867,0.02889060415327549
1742324423526912500,1.20291259765625,-0.010682289488613605,0.016804836690425873,0.021883027628064156
1742324423536897500,1.2128974609375,-0.009579082950949669,0.017681457102298737,0.020655620843172073
1742324423546882600,1.222882568359375,-0.005350516177713871,0.007535611279308796,0.028533516451716423
1742324423556866600,1.232866455078125,-0.0004192320629954338,-0.007149188779294491,0.04395943135023117
1742324423566851600,1.2428515625,0.007521248422563076,-0.021224793046712875,0.05692689120769501
1742324423576836600,1.252836669921875,0.01638052798807621,-0.023655802011489868,0.05850346013903618
1742324423586821600,1.262821533203125,0.01932278834283352,-0.013393308967351913,0.048258014023303986
1742324423596805600,1.2728056640625,0.020371368154883385,-0.0025668982416391373,0.035398323088884354
1742324423606790700,1.282790771484375,0.01913938857614994,-0.005542980972677469,0.023925956338644028
1742324423616775400,1.292775390625,0.014274178072810173,-0.018360797315835953,0.011457370594143867
1742324423626760400,1.302760498046875,0.006798151880502701,-0.030989771708846092,0.003955512773245573
1742324423636744400,1.312744384765625,-0.006713039241731167,-0.02650800347328186,0.00042963307350873947
1742324423646729500,1.3227294921875,-0.012212200090289116,-0.0063673160038888454,0.0013201944530010223
1742324423656714800,1.33271484375,-0.015958817675709724,0.018096011132001877,0.005503014661371708
1742324423666699500,1.342699462890625,-0.013146786019206047,0.030547088012099266,0.016750076785683632
1742324423676683800,1.352683837890625,-0.013705359771847725,0.025291554629802704,0.027118733152747154
1742324423686668500,1.36266845703125,-0.010526077821850777,0.007116811349987984,0.03450234979391098
1742324423696653600,1.372653564453125,-0.00788987334817648,-0.0077935862354934216,0.0347025990486145
1742324423706638600,1.382638671875,-0.006495708599686623,-0.0100889652967453,0.023123709484934807
1742324423716623600,1.39262353515625,-0.010089078918099403,-0.005872339475899935,0.004236433655023575
1742324423726607600,1.402607666015625,-0.013469429686665535,-0.0010046137031167746,-0.016926642507314682
1742324423736592600,1.412592529296875,-0.016142401844263077,0.00220020255073905,-0.03464348614215851
1742324423746577400,1.422577392578125,-0.012661118060350418,-0.0015346144791692495,-0.04799897223711014
1742324423756562400,1.4325625,-0.0075092557817697525,-0.002527558710426092,-0.048490479588508606
1742324423766546400,1.44254638671875,-0.002626083791255951,-0.010555924847722054,-0.04226906597614288
1742324423776531500,1.452531494140625,0.003498668549582362,-0.0212419331073761,-0.02935655228793621
1742324423786516700,1.462516845703125,0.009052424691617489,-0.025547998026013374,-0.017357945442199707
1742324423796501800,1.472501708984375,0.009651677682995796,-0.01904086209833622,-0.00821254774928093
1742324423806485800,1.48248583984375,0.008233543485403061,-0.011900394223630428,-0.001766366884112358
1742324423816470500,1.492470458984375,0.00723400991410017,-0.002955796429887414,0.0011438587680459023
1742324423826455600,1.50245556640625,0.007119760848581791,0.004850461613386869,-0.002107062377035618
1742324423836440600,1.512440673828125,0.007965064607560635,0.010505536571145058,-0.007773787714540958
1742324423846424600,1.522424560546875,0.009880942292511463,0.015801232308149338,-0.01581360399723053
1742324423856409600,1.53240966796875,0.011217528022825718,0.01728125661611557,-0.022942904382944107
1742324423866394600,1.54239453125,0.011048683896660805,0.013656428083777428,-0.023631596937775612
1742324423876379400,1.55237939453125,0.012308363802731037,0.004061324987560511,-0.024746190756559372
1742324423886363400,1.56236328125,0.016124408692121506,-0.0037228285800665617,-0.022192485630512238
1742324423896348400,1.572348388671875,0.013815955258905888,-0.008480414748191833,-0.017379775643348694
1742324423906333700,1.582333740234375,0.01274323370307684,-0.00834246352314949,-0.011543989181518555
1742324423916318700,1.592318603515625,0.00917113572359085,-0.009316647425293922,-0.0008751004934310913
1742324423926302700,1.602302734375,0.007203541696071625,-0.010402846150100231,0.013248363509774208
1742324423936287700,1.612287841796875,0.003296526614576578,-0.017481740564107895,0.02468433789908886
1742324423946272500,1.6222724609375,-0.00004813750274479389,-0.019348351284861565,0.03352469950914383
1742324423956257500,1.632257568359375,0.0045950766652822495,-0.01246400736272335,0.03496576473116875
1742324423966242600,1.64224267578125,0.006617747247219086,0.0012597939930856228,0.027439404278993607
1742324423976226600,1.6522265625,0.012179260142147541,0.018662989139556885,0.013269420713186264
1742324423986211600,1.662211669921875,0.01580648683011532,0.03267654404044151,-0.005487489514052868
1742324423996196600,1.672196533203125,0.01295199990272522,0.036461979150772095,-0.02023274265229702
1742324424006181400,1.682181396484375,0.01081721018999815,0.029228834435343742,-0.02981453202664852
1742324424016165400,1.692165283203125,0.005168204195797443,0.013477964326739311,-0.03506610170006752
1742324424026150400,1.702150390625,0.0000690496526658535,-0.0018866101745516062,-0.03600752726197243
1742324424036135700,1.7121357421875,-0.003372236154973507,-0.008358197286725044,-0.03413977846503258
1742324424046120700,1.72212060546875,-0.0016068267868831754,-0.006895856000483036,-0.025574252009391785
1742324424056104700,1.732104736328125,0.00006983289495110512,-0.0045003569684922695,-0.01259137038141489
1742324424066089700,1.74208984375,0.007450251840054989,0.0006866816547699273,-0.0009248601272702217
1742324424076074500,1.752074462890625,0.014536607079207897,0.012066937983036041,0.007366584148257971
1742324424086059500,1.7620595703125,0.018934551626443863,0.02314062789082527,0.010746934451162815
1742324424096043500,1.77204345703125,0.016710270196199417,0.02367919310927391,0.012118754908442497
1742324424106028500,1.782028564453125,0.011443601921200752,0.014153864234685898,0.013027158565819263
1742324424116013600,1.792013671875,0.012129108421504498,0.00004196621011942625,0.011390088126063347
1742324424125998600,1.80199853515625,0.005107684060931206,-0.010241031646728516,0.006843006704002619
1742324424135982600,1.811982666015625,-0.0015810865443199873,-0.021192632615566254,-0.0002602888271212578
1742324424145967400,1.82196728515625,-0.003944109193980694,-0.027686217799782753,-0.007596498820930719
1742324424155952400,1.831952392578125,-0.004737806040793657,-0.026231078431010246,-0.014396047219634056
1742324424165937400,1.8419375,-0.00349144684150815,-0.02150716260075569,-0.01875910349190235
1742324424175921400,1.85192138671875,0.0006930616218596697,-0.013135761022567749,-0.019839618355035782
1742324424185906400,1.861906494140625,0.003624669276177883,-0.005087155383080244,-0.023034878075122833
1742324424195891500,1.871891357421875,0.0061448561027646065,0.0023233238607645035,-0.02225467376410961
1742324424205876200,1.881876220703125,0.0038880931679159403,0.0019334371900185943,-0.016982413828372955
1742324424215861500,1.891861572265625,0.0059692589566111565,-0.001783662592060864,-0.013352174311876297
1742324424225845200,1.90184521484375,0.010060407221317291,-0.0075565967708826065,-0.006316900718957186
1742324424235830500,1.91183056640625,0.012597667053341866,-0.00998291838914156,-0.0047525689005851746
1742324424245815600,1.921815673828125,0.009151268750429153,-0.01384024042636156,-0.005757645703852177
1742324424255800600,1.931800537109375,0.0038618575781583786,-0.0153774693608284,-0.008763384073972702
1742324424265784600,1.94178466796875,0.0008897699881345034,-0.005235619843006134,-0.015145115554332733
1742324424275769600,1.95176953125,-0.005132194608449936,0.005024694371968508,-0.020065495744347572
1742324424285754400,1.96175439453125,-0.006917843595147133,0.012820033356547356,-0.026106080040335655
1742324424295739400,1.971739501953125,-0.004208636004477739,0.017265265807509422,-0.02482152357697487
1742324424305723400,1.981723388671875,-0.0019340300932526588,0.016610128805041313,-0.021264873445034027
1742324424315708400,1.99170849609375,0.0019713544752448797,0.012332199141383171,-0.014634090475738049
1742324424325693400,2.001693359375,0.0007332507520914078,0.008013349957764149,-0.009630010463297367
1742324424335678500,2.011678466796875,-0.00505574606359005,0.006108987610787153,-0.007147085387259722
1742324424345662500,2.021662353515625,-0.007070960011333227,0.008425671607255936,-0.005652253050357103
1742324424355647200,2.031647216796875,-0.010581179521977901,0.013189731165766716,-0.0067581189796328545
1742324424365632500,2.041632568359375,-0.008643995970487595,0.01348827127367258,-0.012544103898108006
1742324424375617500,2.051617431640625,-0.0044883242808282375,0.009203256107866764,-0.017708806321024895
1742324424385601500,2.0616015625,0.004474810790270567,0.004169881343841553,-0.02489747479557991
1742324424395586600,2.071586669921875,0.01013756450265646,-0.0022720969282090664,-0.03213195502758026
1742324424405571600,2.081571533203125,0.011384456418454647,-0.005518490448594093,-0.037626322358846664
1742324424415556400,2.091556396484375,0.012829754501581192,-0.006267371587455273,-0.03772485628724098
1742324424425540400,2.101540283203125,0.014361603185534477,-0.005689731799066067,-0.03873978927731514
1742324424435525400,2.111525390625,0.014751813374459743,-0.006747114472091198,-0.035965822637081146
1742324424445510400,2.121510498046875,0.013682288117706776,-0.008060319349169731,-0.03181501850485802
1742324424455495400,2.131495361328125,0.013144530355930328,-0.005877410061657429,-0.025759778916835785
1742324424465479400,2.1414794921875,0.011060073971748352,-0.0033767016138881445,-0.016069337725639343
1742324424475464400,2.15146435546875,0.016438210383057594,0.00049901771126315,-0.007243157364428043
1742324424485449500,2.161449462890625,0.018554357811808586,0.007518577855080366,-0.0013149604201316833
1742324424495434500,2.1714345703125,0.01462806947529316,0.005410344805568457,0.0032984078861773014
1742324424505418500,2.18141845703125,0.01191963441669941,-0.0003399523557163775,0.0054140230640769005
1742324424515403500,2.191403564453125,0.002586069982498884,0.0006541289621964097,0.006214215885847807
1742324424525388500,2.201388427734375,-0.0056875720620155334,0.01208654697984457,0.0005536670796573162
1742324424535373600,2.21137353515625,-0.015489894896745682,0.02531621605157852,-0.005178408697247505
1742324424545357600,2.221357666015625,-0.025326546281576157,0.02518092840909958,-0.008392310701310635
1742324424555342300,2.23134228515625,-0.026111189275979996,0.009386241436004639,-0.004662785213440657
1742324424565327400,2.241327392578125,-0.022845620289444923,-0.012804015539586544,-0.002283517736941576
1742324424575312400,2.2513125,-0.01669037714600563,-0.029140092432498932,-0.0034047174267470837
1742324424585297400,2.26129736328125,-0.007928043603897095,-0.033366527408361435,-0.008626377210021019
1742324424595281400,2.271281494140625,0.0005482779815793037,-0.02629537507891655,-0.014179953373968601
1742324424605266400,2.281266357421875,0.0037134450394660234,-0.012732695788145065,-0.01631181314587593
1742324424615251500,2.29125146484375,0.001534466166049242,-0.004114856943488121,-0.014858045615255833
1742324424625236500,2.301236572265625,0.002110774163156748,-0.007842217572033405,-0.006662965752184391
1742324424635220500,2.311220458984375,0.006598392501473427,-0.019572654739022255,0.004786796867847443
1742324424645205500,2.32120556640625,0.011327899992465973,-0.029606912285089493,0.012784003280103207
1742324424655190500,2.3311904296875,0.014063382521271706,-0.0318431481719017,0.015479586087167263
1742324424665175600,2.341175537109375,0.013163765892386436,-0.017641307786107063,0.011747431941330433
1742324424675159600,2.35115966796875,0.015335265547037125,-0.0029065373819321394,0.00951346941292286
1742324424685144300,2.361144287109375,0.016252990812063217,0.002999288495630026,0.003253709524869919
1742324424695129300,2.37112939453125,0.01772882044315338,-0.002709057880565524,-0.0030887885950505733
1742324424705114400,2.3811142578125,0.016488853842020035,-0.008958431892096996,-0.010089440271258354
1742324424715098400,2.391098388671875,0.01636574976146221,-0.013841422274708748,-0.021922390908002853
1742324424725083400,2.40108349609375,0.016988130286335945,-0.014148751273751259,-0.03409649804234505
1742324424735068700,2.411068603515625,0.016034718602895737,-0.01328508835285902,-0.03988621011376381
1742324424745053400,2.421053466796875,0.011963010765612125,-0.01078438013792038,-0.037924788892269135
1742324424755037400,2.431037353515625,0.006676572374999523,-0.013426056131720543,-0.02614269219338894
1742324424765022500,2.4410224609375,0.0018285536207258701,-0.016491353511810303,-0.009275028482079506
1742324424775007500,2.451007568359375,0.0012620051857084036,-0.015334870666265488,0.005343947559595108
1742324424784992500,2.460992431640625,0.0015586812514811754,-0.0007191758486442268,0.013709202408790588
1742324424794976500,2.4709765625,0.007075120694935322,0.019607890397310257,0.015745859593153
1742324424804961500,2.48096142578125,0.008242384530603886,0.024286532774567604,0.015582341700792313
1742324424814946300,2.4909462890625,0.008400510996580124,0.008802827447652817,0.013315999880433083
1742324424824931300,2.500931396484375,0.009082013741135597,-0.01884584315121174,0.012261121533811092
1742324424834915300,2.510915283203125,0.005359670612961054,-0.048414092510938644,0.008799973875284195
1742324424844900400,2.520900390625,0.003244322258979082,-0.06148914620280266,0.008643646724522114
1742324424854885400,2.530885498046875,0.010229816660284996,-0.06698739528656006,0.003794984193518758
1742324424864870700,2.54087060546875,0.01723313145339489,-0.060806725174188614,-0.006902401335537434
1742324424874854400,2.5508544921875,0.018312010914087296,-0.04953725263476372,-0.020042575895786285
1742324424884839400,2.56083935546875,0.021675582975149155,-0.03179740160703659,-0.03184543922543526
1742324424894824400,2.570824462890625,0.023541869595646858,-0.010752731934189796,-0.04026743397116661
1742324424904809500,2.5808095703125,0.021077647805213928,0.01979212835431099,-0.04676235094666481
1742324424914793500,2.59079345703125,0.01354044396430254,0.05394185334444046,-0.05629730224609375
1742324424924778500,2.600778564453125,0.0075027914717793465,0.08937787264585495,-0.0628121942281723
1742324424934763500,2.610763427734375,0.0006076993886381388,0.1244446411728859,-0.06357533484697342
1742324424944748300,2.620748291015625,-0.0032733252737671137,0.1468580812215805,-0.05425160750746727
1742324424954732500,2.630732666015625,0.000323581974953413,0.14913371205329895,-0.03583095222711563
1742324424964717300,2.64071728515625,0.0058357929810881615,0.12882523238658905,-0.0019006840884685516
1742324424974702300,2.650702392578125,0.01100833434611559,0.0941367968916893,0.036716680973768234
1742324424984687400,2.660687255859375,0.022399472072720528,0.05888240411877632,0.07008236646652222
1742324424994671400,2.67067138671875,0.030382171273231506,0.034330014139413834,0.09617943316698074
1742324425004656600,2.68065673828125,0.029970448464155197,0.016051409766077995,0.11674515902996063
1742324425014641400,2.690641357421875,0.030874067917466164,-0.0056507643312215805,0.12694743275642395
1742324425024626400,2.70062646484375,0.029860468581318855,-0.025657761842012405,0.12901778519153595
1742324425034611500,2.710611572265625,0.02808128483593464,-0.04892871901392937,0.12601342797279358
1742324425044595500,2.720595458984375,0.023015951737761497,-0.08021952956914902,0.12079310417175293
1742324425054580500,2.73058056640625,0.023939628154039383,-0.10955971479415894,0.1125316321849823
1742324425064565500,2.7405654296875,0.019536092877388,-0.12395836412906647,0.09966935962438583
1742324425074549500,2.750549560546875,0.018298480659723282,-0.12015453726053238,0.0822596400976181
1742324425084534500,2.760534423828125,0.016936007887125015,-0.10287567973136902,0.0665600374341011
1742324425094519300,2.770519287109375,0.015853989869356155,-0.0800703838467598,0.05511073023080826
1742324425104504300,2.78050439453125,0.01685214228928089,-0.0582449771463871,0.049427542835474014
1742324425114489600,2.790489501953125,0.013416963629424572,-0.0452529713511467,0.04438551142811775
1742324425124473300,2.800473388671875,0.010675238445401192,-0.03603816777467728,0.043384429067373276
1742324425134458600,2.810458740234375,0.009684772230684757,-0.029988309368491173,0.042374491691589355
1742324425144443400,2.820443359375,0.009291157126426697,-0.023182600736618042,0.03554720804095268
1742324425154428200,2.83042822265625,0.010997667908668518,-0.008326657116413116,0.024779146537184715
1742324425164412200,2.840412109375,0.012865075841546059,-0.002532950136810541,0.018143348395824432
1742324425174397200,2.850397216796875,0.009622092358767986,-0.01225923839956522,0.012597505003213882
1742324425184382200,2.86038232421875,0.007985846139490604,-0.03316425159573555,0.012568475678563118
1742324425194367200,2.8703671875,0.007409379817545414,-0.046896256506443024,0.007258228026330471
1742324425204351200,2.880351318359375,0.004659133031964302,-0.051053453236818314,-0.0011184792965650558
1742324425214336300,2.890336181640625,0.0006400493439286947,-0.043606773018836975,-0.012399991042912006
1742324425224321000,2.900321044921875,-0.001953603234142065,-0.028314638882875443,-0.017555072903633118
1742324425234306000,2.91030615234375,-0.0032419234048575163,-0.0043134531006217,-0.023617155849933624
1742324425244290000,2.9202900390625,-0.007201245054602623,0.02388915605843067,-0.027665160596370697
1742324425254275000,2.930275146484375,-0.011724516749382019,0.04957140237092972,-0.0305764339864254
1742324425264260400,2.94026025390625,-0.017787469550967216,0.06560949236154556,-0.032721612602472305
1742324425274245400,2.950245361328125,-0.021737076342105865,0.07712836563587189,-0.03540736436843872
1742324425284229400,2.9602294921875,-0.029350521042943,0.0869104266166687,-0.03726598620414734
1742324425294214100,2.970214111328125,-0.03268081322312355,0.0871262177824974,-0.03491785004734993
1742324425304199200,2.98019921875,-0.03070315159857273,0.08013062179088593,-0.031940434128046036
1742324425314184200,2.99018408203125,-0.026482414454221725,0.07030484080314636,-0.022447960451245308
1742324425324168200,3.000168212890625,-0.020701756700873375,0.05669421702623367,-0.0139189213514328
1742324425334153200,3.0101533203125,-0.014296106994152069,0.039470065385103226,-0.0034983139485120773
1742324425344138200,3.02013818359375,-0.006866952870041132,0.014437150210142136,0.004005408380180597
1742324425354123000,3.030123046875,0.0028547579422593117,-0.008176496252417564,0.005595409777015448
1742324425364107000,3.04010693359375,0.01797139272093773,-0.009913942776620388,0.0029269224032759666
1742324425374092000,3.050092041015625,0.023888353258371353,-0.008249361999332905,-0.009529825299978256
1742324425384077300,3.060077392578125,0.021904032677412033,-0.015975989401340485,-0.015285449102520943
1742324425394062300,3.070062255859375,0.028678501024842262,-0.027916017919778824,-0.017409490421414375
1742324425404046300,3.08004638671875,0.031106771901249886,-0.04208190366625786,-0.012358805164694786
1742324425414031400,3.09003125,0.029225386679172516,-0.05653851106762886,-0.005978980101644993
1742324425424016100,3.10001611328125,0.02268599532544613,-0.06515170633792877,0.007515523582696915
1742324425434001200,3.110001220703125,0.012730024755001068,-0.0667005255818367,0.020405780524015427
1742324425443985200,3.119985107421875,0.003525341860949993,-0.04539204016327858,0.030878927558660507
1742324425453970200,3.12997021484375,-0.003372436622157693,-0.011886268854141235,0.038898736238479614
1742324425463955200,3.139955078125,-0.007974911481142044,0.020972877740859985,0.05011250823736191
1742324425473940200,3.149940185546875,-0.006654828786849976,0.0355936624109745,0.06740410625934601
1742324425483924200,3.15992431640625,-0.0027008336037397385,0.03666878119111061,0.0829915851354599
1742324425493909200,3.1699091796875,0.005589384585618973,0.03229409456253052,0.0948953777551651
1742324425503894000,3.17989404296875,0.010724758729338646,0.03852375969290733,0.09290652722120285
1742324425513879300,3.18987939453125,0.011907883919775486,0.06210367754101753,0.07847771793603897
1742324425523863000,3.199863037109375,0.012807498686015606,0.09287729859352112,0.05331111326813698
1742324425533848300,3.209848388671875,0.006584085524082184,0.10497913509607315,0.028798621147871017
1742324425543833300,3.219833251953125,-0.0003598404582589865,0.0958988219499588,0.0010873652063310146
1742324425553818000,3.229818115234375,-0.0012486824998632073,0.09017913043498993,-0.01835023984313011
1742324425563802400,3.23980224609375,-0.001467594294808805,0.0759730339050293,-0.03303118050098419
1742324425573787100,3.249787109375,-0.0014434673357754946,0.05662032216787338,-0.030641086399555206
1742324425583772200,3.259772216796875,-0.0003270702436566353,0.041523661464452744,-0.012421338818967342
1742324425593757200,3.269757080078125,0.004654797725379467,0.03434079512953758,0.012284446507692337
1742324425603741200,3.2797412109375,0.009364331141114235,0.040133439004421234,0.037787675857543945
1742324425613726200,3.289726318359375,0.01837509498000145,0.05668208748102188,0.0540299229323864
1742324425623711200,3.299711181640625,0.011547548696398735,0.10772369801998138,0.05122055485844612
1742324425633696000,3.309696044921875,0.03221048042178154,0.1408451646566391,0.03720007836818695
1742324425643680000,3.319679931640625,0.03521595522761345,0.15374857187271118,0.02861928939819336
1742324425653665300,3.329665283203125,0.031546853482723236,0.13802039623260498,0.020433804020285606
1742324425663650300,3.339650390625,0.035375677049160004,0.09593019634485245,0.01582067646086216
1742324425673635300,3.34963525390625,0.029662219807505608,0.05261674523353577,0.013102328404784203
1742324425683619300,3.359619384765625,0.01992410607635975,0.01810563914477825,0.008719030767679214
1742324425693604400,3.369604248046875,0.011710833758115768,-0.008483825251460075,0.005255590192973614
1742324425703589000,3.379589111328125,0.007999984547495842,-0.018158556893467903,-0.0015043113380670547
1742324425713574100,3.38957421875,0.00532594695687294,-0.017333008348941803,-0.004674966912716627
1742324425723558100,3.39955810546875,0.004424200393259525,-0.01767629012465477,-0.0027801278047263622
1742324425733543200,3.409543212890625,0.0011141670402139425,-0.031773537397384644,0.005309730302542448
1742324425743528200,3.419528076171875,0.004105961881577969,-0.05439868941903114,0.01880742982029915
1742324425753513200,3.42951318359375,0.008727770298719406,-0.06794917583465576,0.03159583359956741
1742324425763497200,3.439497314453125,0.013481779024004936,-0.06517229229211807,0.03933178633451462
1742324425773482000,3.44948193359375,0.01574009843170643,-0.04444488137960434,0.0444880947470665
1742324425783467300,3.45946728515625,0.016926269978284836,-0.016256386414170265,0.048633038997650146
1742324425793452300,3.469452392578125,0.01719813607633114,0.007544314488768578,0.05457284674048424
1742324425803436300,3.479436279296875,0.017964327707886696,0.018862484022974968,0.057511910796165466
1742324425813421300,3.48942138671875,0.016763433814048767,0.024100909009575844,0.0603460855782032
1742324425823406300,3.49940625,0.015227057039737701,0.028622424229979515,0.0630585104227066
1742324425833391000,3.50939111328125,0.01840713806450367,0.030543629080057144,0.06318394839763641
1742324425843375000,3.519375,0.017139654606580734,0.028880547732114792,0.06335897743701935
1742324425853360000,3.529360107421875,0.018468305468559265,0.019045494496822357,0.06098050996661186
1742324425863345200,3.53934521484375,0.01765258051455021,0.007578189950436354,0.05695700645446777
1742324425873330200,3.549330078125,0.017291804775595665,0.0029514161869883537,0.046945326030254364
1742324425883314200,3.559314208984375,0.019521670415997505,0.013836820609867573,0.03267664089798927
1742324425893299200,3.56929931640625,0.02409786358475685,0.030565934255719185,0.019600192084908485
1742324425903284000,3.579283935546875,0.03076641820371151,0.04624556005001068,0.009488968178629875
1742324425913269200,3.589269287109375,0.03580682724714279,0.05543006211519241,0.005295116920024157
1742324425923253200,3.599253173828125,0.04193795472383499,0.06363338977098465,0.0050024352967739105
1742324425933238300,3.60923828125,0.046994201838970184,0.06993971765041351,0.00392559077590704
1742324425943223300,3.619223388671875,0.057765357196331024,0.07263430953025818,-0.0013314890675246716
1742324425953208300,3.629208251953125,0.06086434796452522,0.07562272995710373,-0.012167075648903847
1742324425963192300,3.6391923828125,0.06515869498252869,0.08764477074146271,-0.02651272714138031
1742324425973177000,3.649177001953125,0.07067921757698059,0.11447255313396454,-0.047620389610528946
1742324425983162000,3.659162109375,0.07051170617341995,0.15181247889995575,-0.06928307563066483
1742324425993147100,3.669147216796875,0.06220101937651634,0.1789100170135498,-0.08312687277793884
1742324426003131100,3.679131103515625,0.06104626879096031,0.19000501930713654,-0.08624356985092163
1742324426013116200,3.6891162109375,0.058535702526569366,0.18301455676555634,-0.07962638884782791
1742324426023101200,3.69910107421875,0.056725285947322845,0.16478681564331055,-0.06654414534568787
1742324426033086200,3.709086181640625,0.06759583204984665,0.13804909586906433,-0.051467910408973694
1742324426043070000,3.719070068359375,0.08285867422819138,0.11676351726055145,-0.0392455980181694
1742324426053055200,3.72905517578125,0.10710806399583817,0.10277888178825378,-0.03219509497284889
1742324426063040300,3.739040283203125,0.12743809819221497,0.08802975714206696,-0.03309311345219612
1742324426073025300,3.749025390625,0.15007567405700684,0.07492741197347641,-0.039670173078775406
1742324426083009300,3.75900927734375,0.16511373221874237,0.05893033370375633,-0.04684313386678696
1742324426092994300,3.768994384765625,0.172372505068779,0.034387338906526566,-0.06028861925005913
1742324426102979000,3.77897900390625,0.1703956425189972,-0.002414619317278266,-0.0672871321439743
1742324426112964000,3.788964111328125,0.15947359800338745,-0.03905586153268814,-0.07514094561338425
1742324426122948000,3.798947998046875,0.14717671275138855,-0.06360061466693878,-0.08191683143377304
1742324426132933000,3.80893310546875,0.13347478210926056,-0.06631388515233994,-0.08685949444770813
1742324426142918100,3.818918212890625,0.11630725115537643,-0.045241352170705795,-0.0941150113940239
1742324426152903200,3.828903076171875,0.10345471650362015,-0.011106792837381363,-0.10039273649454117
1742324426162887200,3.83888720703125,0.0883181095123291,0.027580682188272476,-0.10343167185783386
1742324426172872200,3.8488720703125,0.06949857622385025,0.06394830346107483,-0.09680391103029251
1742324426182857000,3.85885693359375,0.047069162130355835,0.09259513020515442,-0.08284015953540802
1742324426192842000,3.868842041015625,0.024765485897660255,0.11603711545467377,-0.06394116580486298
1742324426202826000,3.878825927734375,-0.007174603175371885,0.13421958684921265,-0.04109684005379677
1742324426212811000,3.88881103515625,-0.03618921339511871,0.14644163846969604,-0.01661040633916855
1742324426222796000,3.898796142578125,-0.05325954779982567,0.15191903710365295,0.006030750926584005
1742324426232781000,3.908781005859375,-0.060907140374183655,0.14646737277507782,0.020604616031050682
1742324426242765000,3.91876513671875,-0.05835636332631111,0.12331678718328476,0.027553601190447807
1742324426252750000,3.92875,-0.047154735773801804,0.0898510217666626,0.031031785532832146
1742324426262735000,3.938735107421875,-0.030718768015503883,0.0476127527654171,0.03117453120648861
1742324426272720100,3.94872021484375,-0.013058675453066826,0.0007537248311564326,0.027979020029306412
1742324426282704100,3.9587041015625,-0.003875030903145671,-0.059244632720947266,0.025484967976808548
1742324426292689200,3.968689208984375,0.0036702367942780256,-0.113744355738163,0.02400052174925804
1742324426302674200,3.978674072265625,0.014868486672639847,-0.15085604786872864,0.016261085867881775
1742324426312659000,3.988658935546875,0.020714500918984413,-0.16689567267894745,0.004573898855596781
1742324426322643000,3.998642822265625,0.02995673567056656,-0.16736705601215363,-0.011304400861263275
1742324426332628000,4.0086279296875,0.03343401104211807,-0.16256503760814667,-0.025338107720017433
1742324426342613000,4.018613037109375,0.03112478367984295,-0.15033739805221558,-0.0329132005572319
1742324426352598000,4.028597900390625,0.0230992641299963,-0.13301055133342743,-0.03654276579618454
1742324426362582000,4.03858203125,0.016093552112579346,-0.09743870049715042,-0.040176115930080414
1742324426372567300,4.0485673828125,0.004003941081464291,-0.05257561057806015,-0.04192132130265236
1742324426382552000,4.058552001953125,-0.011152375489473343,-0.009568221867084503,-0.03821659833192825
1742324426392537000,4.068537109375,-0.01642148196697235,0.025709640234708786,-0.033428870141506195
1742324426402521000,4.07852099609375,-0.02212836965918541,0.04493925720453262,-0.02823037840425968
1742324426412506000,4.088506103515625,-0.027935659512877464,0.05545901134610176,-0.026872964575886726
1742324426422491100,4.0984912109375,-0.03236912935972214,0.062400754541158676,-0.028134332969784737
1742324426432476200,4.10847607421875,-0.030472276732325554,0.0679452121257782,-0.03321012109518051
1742324426442460200,4.118460205078125,-0.032474976032972336,0.06954044848680496,-0.04083874449133873
1742324426452445000,4.12844482421875,-0.03790862485766411,0.06334619969129562,-0.042545564472675323
1742324426462430000,4.138429931640625,-0.038801759481430054,0.044768188148736954,-0.03640070557594299
1742324426472414000,4.1484140625,-0.03690744936466217,0.022383255884051323,-0.025779753923416138
1742324426482399000,4.15839892578125,-0.030322253704071045,0.00478269113227725,-0.008985861204564571
1742324426492384000,4.168384033203125,-0.025496339425444603,-0.00799462292343378,0.007688723038882017
1742324426502369300,4.178369384765625,-0.01898149400949478,-0.01150064542889595,0.027508988976478577
1742324426512354000,4.18835400390625,-0.007483561523258686,-0.01955404318869114,0.05008833482861519
1742324426522338000,4.198338134765625,0.006582594942301512,-0.02797779068350792,0.06935812532901764
1742324426532323000,4.208322998046875,0.015582747757434845,-0.04628542438149452,0.0829373225569725
1742324426542308000,4.21830810546875,0.017718849703669548,-0.0636725202202797,0.08873719722032547
1742324426552292000,4.2282919921875,0.01615743897855282,-0.08439777046442032,0.08824717998504639
1742324426562277000,4.238277099609375,0.010690274648368359,-0.10510202497243881,0.0854712650179863
1742324426572262100,4.24826220703125,0.0035332960542291403,-0.12261949479579926,0.08346883207559586
1742324426582247000,4.258246826171875,-0.0018715449841693044,-0.12674422562122345,0.0883491188287735
1742324426592231000,4.26823095703125,-0.0018689044518396258,-0.11551912873983383,0.09804020822048187
1742324426602216000,4.2782158203125,-0.00003718235529959202,-0.09413394331932068,0.10948488116264343
1742324426612201000,4.288200927734375,0.0027269127313047647,-0.061844177544116974,0.1147395595908165
1742324426622186200,4.298186279296875,0.008665028028190136,-0.01773175783455372,0.1169249415397644
1742324426632171300,4.308171142578125,0.01241582352668047,0.018400147557258606,0.11183830350637436
1742324426642155300,4.3181552734375,0.01299266517162323,0.029338814318180084,0.10682570189237595
1742324426652140000,4.32814013671875,0.00964994914829731,0.025584224611520767,0.09404779225587845
1742324426662125000,4.338125,0.005952416453510523,0.01711777038872242,0.07657718658447266
1742324426672110000,4.348110107421875,-0.0013730664504691958,0.004724495112895966,0.05030454322695732
1742324426682094000,4.358093994140625,-0.0012729315785691142,-0.005484999157488346,0.02285613864660263
1742324426692079000,4.3680791015625,-0.0020354462321847677,-0.011311622336506844,-0.006200090982019901
1742324426702064000,4.378064208984375,-0.001890570274554193,-0.02007688395678997,-0.031345926225185394
1742324426712049000,4.388048828125,-0.003259668592363596,-0.031179824844002724,-0.04683873429894447
1742324426722033000,4.398032958984375,-0.011845700442790985,-0.018623819574713707,-0.05541863664984703
1742324426732018000,4.408017822265625,0.003269645618274808,-0.02764131687581539,-0.06719663739204407
1742324426742003000,4.4180029296875,0.002640872960910201,-0.03937041014432907,-0.06601525843143463
1742324426751988200,4.42798828125,-0.0030644587241113186,-0.05734485387802124,-0.0591430701315403
1742324426761972000,4.437971923828125,-0.007986246608197689,-0.06099311634898186,-0.04349859803915024
1742324426771957200,4.447957275390625,-0.011012363247573376,-0.049122828990221024,-0.023788681253790855
1742324426781942000,4.45794189453125,-0.014541317708790302,-0.037695471197366714,-0.002455961424857378
1742324426791927000,4.467927001953125,-0.011881153099238873,-0.028726298362016678,0.02440362423658371
1742324426801911000,4.4779111328125,-0.01541889552026987,-0.01995544321835041,0.04702078551054001
1742324426811896000,4.48789599609375,-0.018009694293141365,-0.010870613157749176,0.06916260719299316
1742324426821881000,4.497881103515625,-0.024685973301529884,-0.006825271528214216,0.08334659785032272
1742324426831866000,4.5078662109375,-0.03597041219472885,-0.011341055855154991,0.08995026350021362
1742324426841850000,4.51785009765625,-0.05083830654621124,-0.03341067209839821,0.08780055493116379
1742324426851835100,4.527835205078125,-0.061639394611120224,-0.05798424407839775,0.08020193129777908
1742324426861820000,4.53781982421875,-0.06390335410833359,-0.0923190489411354,0.07172615826129913
1742324426871805000,4.547804931640625,-0.061202146112918854,-0.1327814757823944,0.06758217513561249
1742324426881789000,4.557788818359375,-0.061937179416418076,-0.16906625032424927,0.07622786611318588
1742324426891774200,4.567774169921875,-0.06399864703416824,-0.19442415237426758,0.10108574479818344
1742324426901759200,4.57775927734375,-0.06442901492118835,-0.22167973220348358,0.14170986413955688
1742324426911744000,4.587743896484375,-0.05272982269525528,-0.2280215173959732,0.18776394426822662
1742324426921728300,4.597728271484375,-0.03545123338699341,-0.19918987154960632,0.21138139069080353
1742324426931713000,4.607713134765625,-0.015384474769234657,-0.13087308406829834,0.20895695686340332
1742324426941698000,4.617697998046875,0.0029191647190600634,-0.039629727602005005,0.17892314493656158
1742324426951683000,4.62768310546875,0.005127749405801296,0.029777957126498222,0.15107649564743042
1742324426961667000,4.6376669921875,0.008713163435459137,0.04860943183302879,0.143560528755188
1742324426971652000,4.647652099609375,0.023824188858270645,0.02959161251783371,0.1608264148235321
1742324426981637000,4.65763720703125,0.03562571853399277,-0.024904919788241386,0.194887176156044
1742324426991622000,4.667621826171875,0.03822693973779678,-0.08546701818704605,0.23418913781642914
1742324427001606000,4.67760595703125,0.05722672864794731,-0.12646611034870148,0.24558907747268677
1742324427011591000,4.6875908203125,0.07025845348834991,-0.09526271373033524,0.22034409642219543
1742324427021576200,4.697576171875,0.1400039941072464,-0.03844257444143295,0.21205660700798035
1742324427031561200,4.707561279296875,0.2638322412967682,-0.048710040748119354,0.2260616421699524
1742324427041546000,4.7175458984375,0.3214910328388214,-0.18148007988929749,0.20692762732505798
1742324427051530200,4.7275302734375,0.24475519359111786,-0.2401900440454483,0.18831706047058105
1742324427061515000,4.737514892578125,0.1175711452960968,-0.18892765045166016,0.21368393301963806
1742324427071500000,4.7475,0.05325610563158989,-0.1325783133506775,0.2745077311992645
1742324427081485000,4.757485107421875,0.04024549946188927,-0.1584423929452896,0.3482341468334198
1742324427091469000,4.767468994140625,0.029454760253429413,-0.2619638442993164,0.4132552444934845
1742324427101454000,4.7774541015625,0.027121298015117645,-0.3699941635131836,0.4321410655975342
1742324427111439000,4.787439208984375,0.03518107533454895,-0.3965316116809845,0.38986343145370483
1742324427121424000,4.797423828125,0.03750361502170563,-0.2921935021877289,0.28370290994644165
1742324427131408000,4.807407958984375,0.031319648027420044,-0.1650470346212387,0.15845835208892822
1742324427141393700,4.8173935546875,0.023618051782250404,-0.0783584862947464,0.048008810728788376
1742324427151378700,4.827378662109375,0.006246237549930811,-0.020433057099580765,-0.022671133279800415
1742324427161364000,4.837364013671875,-0.0020122251007705927,0.028728896751999855,-0.05090197175741196
1742324427171347700,4.84734765625,0.014650491997599602,0.11788938194513321,-0.055473215878009796
1742324427181332700,4.857332763671875,0.0447751060128212,0.24806176126003265,-0.0603763684630394
1742324427191317800,4.86731787109375,0.0674668401479721,0.3546063005924225,-0.03872865438461304
1742324427201302800,4.877302734375,0.07239528745412827,0.3768077492713928,0.0485529899597168
1742324427211286800,4.887286865234375,0.07804767042398453,0.3633890151977539,0.17353850603103638
1742324427221271800,4.897271728515625,0.08130498230457306,0.4374728500843048,0.2936563789844513
1742324427231256800,4.9072568359375,0.08262430131435394,0.580643892288208,0.3811015784740448
1742324427241241600,4.91724169921875,0.07286461442708969,0.6673932075500488,0.43032291531562805
1742324427251225600,4.9272255859375,0.06177669018507004,0.6502723693847656,0.4570266604423523
1742324427261210600,4.937210693359375,0.08284815400838852,0.6552239656448364,0.4474209249019623
1742324427271195600,4.947195556640625,0.14593058824539185,0.7377562522888184,0.3851202726364136
1742324427281180700,4.9571806640625,0.19453275203704834,0.6403028964996338,0.34756356477737427
1742324427291164700,4.96716455078125,0.24073059856891632,0.4575378894805908,0.28911489248275757
1742324427301150000,4.97714990234375,0.27443423867225647,0.26842495799064636,0.21812035143375397
1742324427311134700,4.987134765625,0.24641092121601105,0.12681981921195984,0.15789663791656494
1742324427321119700,4.99711962890625,0.13864637911319733,-0.004850591067224741,0.09262655675411224
1742324427331103700,5.007103759765625,0.02715812623500824,-0.10504290461540222,0.0502898171544075
1742324427341088800,5.0170888671875,0.00370552996173501,-0.1484830677509308,0.0010106838308274746
1742324427351073800,5.02707373046875,0.043045420199632645,-0.13064023852348328,-0.04749591648578644
1742324427361058800,5.037058837890625,0.10031963139772415,-0.07555168122053146,-0.08547046780586243
1742324427371043600,5.047043701171875,0.1474728286266327,-0.017326636239886284,-0.10016333311796188
1742324427381027600,5.057027587890625,0.16678394377231598,0.02096855454146862,-0.0911053940653801
1742324427391012600,5.0670126953125,0.16874155402183533,0.056752756237983704,-0.048700962215662
1742324427400997600,5.07699755859375,0.16428716480731964,0.06829595565795898,0.021447764709591866
1742324427410983000,5.08698291015625,0.15868286788463593,0.05564344301819801,0.10882449895143509
1742324427420966700,5.096966552734375,0.157666876912117,0.05645251274108887,0.1888681948184967
1742324427430952000,5.106951904296875,0.1569499522447586,0.06020935997366905,0.2527227997779846
1742324427440936700,5.116936767578125,0.13431014120578766,0.07254059612751007,0.29517170786857605
1742324427450921700,5.126921630859375,0.07385600358247757,0.07875144481658936,0.3274068534374237
1742324427460905700,5.13690576171875,-0.002867800649255514,0.12472853064537048,0.3435530662536621
1742324427470890800,5.146890869140625,-0.057703640311956406,0.24871693551540375,0.34299710392951965
1742324427480875800,5.156875732421875,-0.08884185552597046,0.40240901708602905,0.34446290135383606
1742324427490860800,5.16686083984375,-0.09478842467069626,0.5651332139968872,0.351189523935318
1742324427500844800,5.1768447265625,-0.088961161673069,0.6952097415924072,0.3663564920425415
1742324427510829600,5.18682958984375,-0.0804588794708252,0.7522017359733582,0.3946770131587982
1742324427520814600,5.196814697265625,-0.07587025314569473,0.7158517241477966,0.42442426085472107
1742324427530799600,5.206799560546875,-0.09047197550535202,0.6242836117744446,0.44769635796546936
1742324427540783600,5.21678369140625,-0.1324702948331833,0.5205910205841064,0.4628116488456726
1742324427550769000,5.226768798828125,-0.1988716572523117,0.4422440826892853,0.465097576379776
1742324427560754000,5.23675390625,-0.26946592330932617,0.4050828814506531,0.4239959418773651
1742324427570738700,5.24673876953125,-0.35100504755973816,0.4352106750011444,0.36364874243736267
1742324427580722700,5.25672265625,-0.4405410587787628,0.4482436776161194,0.2884085774421692
1742324427590707700,5.266707763671875,-0.4848656952381134,0.3687892556190491,0.1981579065322876
1742324427600692700,5.276692626953125,-0.47150754928588867,0.19784894585609436,0.09354256093502045
1742324427610677800,5.286677734375,-0.44276612997055054,0.038711801171302795,0.06983362883329391
1742324427620661800,5.296661865234375,-0.425583153963089,-0.0791325494647026,0.08551405370235443
1742324427630646800,5.306646728515625,-0.41465434432029724,-0.18032947182655334,0.10128422826528549
1742324427640631600,5.316631591796875,-0.4046989381313324,-0.2875051200389862,0.10761085897684097
1742324427650616600,5.326616455078125,-0.3861640989780426,-0.3727347254753113,0.11198630183935165
1742324427660600600,5.3366005859375,-0.3616800606250763,-0.42455238103866577,0.11062542349100113
1742324427670585600,5.346585693359375,-0.34049373865127563,-0.4302200675010681,0.10444533824920654
1742324427680571000,5.35657080078125,-0.3242918848991394,-0.40519967675209045,0.1110081672668457
1742324427690556000,5.366555908203125,-0.3202257752418518,-0.3626757264137268,0.11899043619632721
1742324427700540000,5.376539794921875,-0.3374641239643097,-0.3174469769001007,0.1305762529373169
1742324427710524700,5.386524658203125,-0.3574860095977783,-0.29991084337234497,0.13451918959617615
1742324427720509700,5.396509765625,-0.37360960245132446,-0.29077884554862976,0.12508520483970642
1742324427730494700,5.40649462890625,-0.3764997124671936,-0.28360632061958313,0.10589652508497238
1742324427740478700,5.416478759765625,-0.3585958182811737,-0.28857097029685974,0.08931781351566315
1742324427750463700,5.426463623046875,-0.2953870892524719,-0.29568901658058167,0.06472305208444595
1742324427760448800,5.43644873046875,-0.2123366743326187,-0.3049621284008026,0.03003857284784317
1742324427770433800,5.446433837890625,-0.13833805918693542,-0.3329237103462219,-0.012353703379631042
1742324427780417800,5.456417724609375,-0.08879073709249496,-0.34822410345077515,-0.04769544675946236
1742324427790402600,5.466402587890625,-0.06210741400718689,-0.3456891179084778,-0.07765652239322662
1742324427800387600,5.4763876953125,-0.06046397611498833,-0.3238184452056885,-0.10582610964775085
1742324427810372900,5.486372802734375,-0.06487052142620087,-0.29619693756103516,-0.12685945630073547
1742324427820356900,5.49635693359375,-0.07060589641332626,-0.25014370679855347,-0.150355726480484
1742324427830342000,5.506341796875,-0.08000225573778152,-0.2347508817911148,-0.15657956898212433
1742324427840327000,5.516326904296875,-0.09378810971975327,-0.22020097076892853,-0.15609247982501984
1742324427850311700,5.526311767578125,-0.10017113387584686,-0.21109725534915924,-0.15111945569515228
1742324427860295700,5.536295654296875,-0.09740091115236282,-0.19326312839984894,-0.1432088017463684
1742324427870280700,5.54628076171875,-0.09141518920660019,-0.17213228344917297,-0.1338840126991272
1742324427880265700,5.556265625,-0.08300413191318512,-0.14853426814079285,-0.12992069125175476
1742324427890250800,5.566250732421875,-0.06676225364208221,-0.14223149418830872,-0.12648700177669525
1742324427900234800,5.57623486328125,-0.055584706366062164,-0.15649884939193726,-0.12470348179340363
1742324427910219800,5.5862197265625,-0.058513741940259933,-0.18360620737075806,-0.12105166912078857
1742324427920204500,5.59620458984375,-0.06643398106098175,-0.19791777431964874,-0.12054327130317688
1742324427930189800,5.60618994140625,-0.07726217061281204,-0.2088060826063156,-0.1307118535041809
1742324427940173600,5.616173583984375,-0.08188222348690033,-0.20492345094680786,-0.1488831341266632
1742324427950158800,5.626158935546875,-0.08312512189149857,-0.19486096501350403,-0.1603722870349884
1742324427960144000,5.636143798828125,-0.07881887257099152,-0.1899164766073227,-0.15622349083423615
1742324427970129000,5.64612890625,-0.07240728288888931,-0.19631974399089813,-0.14099007844924927
1742324427980113000,5.65611279296875,-0.062369830906391144,-0.20915405452251434,-0.12193223088979721
1742324427990097700,5.66609765625,-0.0501193106174469,-0.23111087083816528,-0.10484746843576431
1742324428000082700,5.676082763671875,-0.035168856382369995,-0.2430301010608673,-0.09099290519952774
1742324428010067700,5.686067626953125,-0.026621079072356224,-0.2393454909324646,-0.08995649218559265
1742324428020051700,5.6960517578125,-0.025142492726445198,-0.23085267841815948,-0.09350915253162384
1742324428030036700,5.70603662109375,-0.02616507187485695,-0.2349984049797058,-0.09414833784103394
1742324428040021800,5.716021728515625,-0.036189742386341095,-0.23550386726856232,-0.09583944827318192
1742324428050006500,5.726006591796875,-0.049780867993831635,-0.22337035834789276,-0.09487929940223694
1742324428059990500,5.735990478515625,-0.05732719972729683,-0.20545847713947296,-0.09113596379756927
1742324428069975600,5.7459755859375,-0.06292404234409332,-0.1796616017818451,-0.08172566443681717
1742324428079960800,5.7559609375,-0.06223348528146744,-0.14343461394309998,-0.06680396944284439
1742324428089945900,5.76594580078125,-0.054611146450042725,-0.10876712203025818,-0.050223566591739655
1742324428099929900,5.775929931640625,-0.049086153507232666,-0.09137775003910065,-0.03269490972161293
1742324428109915000,5.785914794921875,-0.048043955117464066,-0.08722476661205292,-0.010608095675706863
1742324428119899600,5.795899658203125,-0.05514580383896828,-0.09828353673219681,0.010875624604523182
1742324428129884700,5.805884765625,-0.06298854202032089,-0.12054436653852463,0.02898053266108036
1742324428139868200,5.8158681640625,-0.07605374604463577,-0.13614970445632935,0.03955487906932831
1742324428149853200,5.825853271484375,-0.08548121899366379,-0.13957959413528442,0.04436914622783661
1742324428159838200,5.835838134765625,-0.09326084703207016,-0.1332159787416458,0.045187801122665405
1742324428169823200,5.8458232421875,-0.09054815024137497,-0.10560112446546555,0.03805718570947647
1742324428179807200,5.85580712890625,-0.07699692994356155,-0.07322047650814056,0.023366477340459824
1742324428189792300,5.865792236328125,-0.06148139014840126,-0.04645948484539986,0.00912216491997242
1742324428199777000,5.875777099609375,-0.047194864600896835,-0.04211986064910889,-0.0014204904437065125
1742324428209762000,5.885761962890625,-0.04232408106327057,-0.055125508457422256,-0.00271687563508749
1742324428219746000,5.89574609375,-0.04849648475646973,-0.0792715921998024,0.00998480524867773
1742324428229731000,5.90573095703125,-0.05948575213551521,-0.10742359608411789,0.03369806334376335
1742324428239716400,5.91571630859375,-0.06149857118725777,-0.12759357690811157,0.058324579149484634
1742324428249701400,5.925701416015625,-0.05668613314628601,-0.1315390020608902,0.08092533051967621
1742324428259685400,5.935685302734375,-0.04932808503508568,-0.12759192287921906,0.09884041547775269
1742324428269670100,5.945670166015625,-0.03986969590187073,-0.10923036187887192,0.09781017899513245
1742324428279655200,5.9556552734375,-0.028667112812399864,-0.08162456750869751,0.08039097487926483
1742324428289640200,5.96564013671875,-0.014621375128626823,-0.05103787034749985,0.048892125487327576
1742324428299624200,5.975624267578125,-0.0008997039403766394,-0.03033844754099846,0.017542194575071335
1742324428309609200,5.985609130859375,0.008689729496836662,-0.0263181421905756,-0.008609538897871971
1742324428319594200,5.99559423828125,0.011585650965571404,-0.03691805526614189,-0.02575949765741825
1742324428329579000,6.0055791015625,0.010600644163787365,-0.05914973467588425,-0.039771005511283875
1742324428339563000,6.01556298828125,0.0010689243208616972,-0.07810238748788834,-0.05143991485238075
1742324428349548000,6.025548095703125,-0.01094811037182808,-0.08471783250570297,-0.06601786613464355
1742324428359533300,6.035533203125,-0.016597207635641098,-0.0791422426700592,-0.07806813716888428
1742324428369518300,6.045518310546875,-0.02214982360601425,-0.07315411418676376,-0.07712887227535248
1742324428379502300,6.05550244140625,-0.021457402035593987,-0.06484585255384445,-0.06850023567676544
1742324428389487400,6.0654873046875,-0.01773698814213276,-0.06063364818692207,-0.059565220028162
1742324428399472000,6.07547216796875,-0.016864802688360214,-0.062095992267131805,-0.04899992421269417
1742324428409457200,6.08545703125,-0.023787688463926315,-0.061906903982162476,-0.04166877642273903
1742324428419441200,6.095441162109375,-0.02935734950006008,-0.05542396008968353,-0.036921460181474686
1742324428429426200,6.10542626953125,-0.031978167593479156,-0.05614514648914337,-0.03141377493739128
1742324428439411200,6.1154111328125,-0.03159626945853233,-0.048647549003362656,-0.029473926872015
1742324428449396200,6.125396240234375,-0.034409623593091965,-0.03127555921673775,-0.035358741879463196
1742324428459380200,6.135380126953125,-0.039162300527095795,-0.022278068587183952,-0.04371201619505882
1742324428469365000,6.145364990234375,-0.04414459690451622,-0.016890384256839752,-0.050893038511276245
1742324428479350000,6.15535009765625,-0.049530837684869766,-0.02342338301241398,-0.05230451375246048
1742324428489335300,6.165335205078125,-0.05248670279979706,-0.03559122234582901,-0.048634566366672516
1742324428499319000,6.175319091796875,-0.053256355226039886,-0.051692429929971695,-0.03916356712579727
1742324428509304300,6.18530419921875,-0.044639162719249725,-0.06016101315617561,-0.027927158400416374
1742324428519289300,6.195289306640625,-0.03684305027127266,-0.05671073496341705,-0.0222974494099617
1742324428529274000,6.205274169921875,-0.029715385288000107,-0.05103832483291626,-0.02044058032333851
1742324428539258400,6.21525830078125,-0.02299196831882,-0.050344038754701614,-0.020641116425395012
1742324428549243100,6.2252431640625,-0.01855989173054695,-0.05085139349102974,-0.024229682981967926
1742324428559228200,6.235228271484375,-0.022131726145744324,-0.05622272193431854,-0.03279467672109604
1742324428569212200,6.245212158203125,-0.025913678109645844,-0.06332111358642578,-0.0402240976691246
1742324428579197200,6.255197265625,-0.028760546818375587,-0.066973477602005,-0.03671424090862274
1742324428589182200,6.26518212890625,-0.03235667571425438,-0.06320066750049591,-0.02752552554011345
1742324428599167200,6.275167236328125,-0.030894333496689796,-0.047523971647024155,-0.011759612709283829
1742324428609151200,6.285151123046875,-0.028900425881147385,-0.036033231765031815,0.012137730605900288
1742324428619136000,6.295135986328125,-0.019286222755908966,-0.01713651604950428,0.03353200480341911
1742324428629121300,6.305121337890625,-0.012411272153258324,-0.004948025103658438,0.048508819192647934
1742324428639106300,6.315106201171875,-0.009383450262248516,0.0033796904608607292,0.05189845710992813
1742324428649090300,6.32509033203125,-0.005415606312453747,-0.0035005861427634954,0.04956686124205589
1742324428659075300,6.335075439453125,-0.009008839726448059,-0.016828766092658043,0.04141341149806976
1742324428669060400,6.345060302734375,-0.014321452006697655,-0.026356855407357216,0.027025461196899414
1742324428679045000,6.355045166015625,-0.017743879929184914,-0.04101809114217758,0.0055798254907131195
1742324428689029000,6.365029052734375,-0.023752961307764053,-0.04748130589723587,-0.009409811347723007
1742324428699014100,6.37501416015625,-0.02848726324737072,-0.051366858184337616,-0.02074182778596878
1742324428708999200,6.384999267578125,-0.03403409570455551,-0.040103282779455185,-0.03146025165915489
1742324428718984200,6.394984130859375,-0.039277687668800354,-0.016221510246396065,-0.040104787796735764
1742324428728968200,6.40496826171875,-0.039267025887966156,0.007598523981869221,-0.0438806414604187
1742324428738953200,6.414953125,-0.035645127296447754,0.029570136219263077,-0.04326651617884636
1742324428748938000,6.42493798828125,-0.03021383285522461,0.04010237380862236,-0.03001665510237217
1742324428758923300,6.43492333984375,-0.019346272572875023,0.03677475452423096,-0.01076333224773407
1742324428768907300,6.4449072265625,-0.009845977649092674,0.018517186865210533,0.00954300444573164
1742324428778892300,6.454892333984375,-0.010265692137181759,-0.005568975582718849,0.02171897701919079
1742324428788877300,6.464877197265625,-0.014821561053395271,-0.031295642256736755,0.01943132095038891
1742324428798862300,6.4748623046875,-0.0225248821079731,-0.055848561227321625,0.010586122050881386
1742324428808846300,6.484846435546875,-0.03688983619213104,-0.07598329335451126,-0.005844765808433294
1742324428818831000,6.4948310546875,-0.039131417870521545,-0.07977323979139328,-0.02869734913110733
1742324428828816100,6.504816162109375,-0.03861822932958603,-0.07247511297464371,-0.05492629110813141
1742324428838801200,6.51480126953125,-0.04047483950853348,-0.06089693680405617,-0.06445266306400299
1742324428848785200,6.52478515625,-0.05325828120112419,-0.05965030938386917,-0.05495983362197876
1742324428858770200,6.534770263671875,-0.08015841245651245,-0.07404204457998276,-0.029390256851911545
1742324428868755200,6.544755126953125,-0.12873899936676025,-0.04131845012307167,-0.004508874379098415
1742324428878740200,6.554740234375,-0.16167190670967102,0.031064603477716446,0.05760527774691582
1742324428888724000,6.564723876953125,-0.15957173705101013,0.14244651794433594,0.16802926361560822
1742324428898709200,6.574709228515625,-0.13470888137817383,0.2962895333766937,0.2950889766216278
1742324428908694300,6.5846943359375,-0.12634015083312988,0.4390365481376648,0.42893651127815247
1742324428918678300,6.59467822265625,-0.1272575557231903,0.5353260040283203,0.5470874309539795
1742324428928663300,6.604663330078125,-0.13784629106521606,0.6079556941986084,0.640069305896759
1742324428938648300,6.6146484375,-0.16057291626930237,0.6971780061721802,0.7042298913002014
1742324428948633000,6.624633056640625,-0.18749773502349854,0.8173989653587341,0.7647222876548767
1742324428958617000,6.6346171875,-0.22851920127868652,0.9630988836288452,0.8780165910720825
1742324428968602000,6.64460205078125,-0.2666732370853424,1.1213865280151367,1.067516803741455
1742324428978587100,6.654587158203125,-0.2630864083766937,1.2965574264526367,1.3262537717819214
1742324428988572200,6.664572265625,-0.1983274221420288,1.5079803466796875,1.6225247383117676
1742324428998556200,6.67455615234375,-0.07525155693292618,1.731636643409729,1.9347842931747437
1742324429008541200,6.684541259765625,0.08836400508880615,1.9582288265228271,2.235029458999634
1742324429018526000,6.69452587890625,0.28957879543304443,2.1952621936798096,2.4746170043945312
1742324429028511200,6.70451123046875,0.5086269974708557,2.4417736530303955,2.6377882957458496
1742324429038495200,6.7144951171875,0.7310075759887695,2.665029287338257,2.738931655883789
1742324429048480300,6.724480224609375,0.9232542514801025,2.846931219100952,2.797799587249756
1742324429058465300,6.73446533203125,1.0866670608520508,2.9810609817504883,2.823704481124878
1742324429068450300,6.7444501953125,1.2420885562896729,3.0551867485046387,2.815364122390747
1742324429078434300,6.754434326171875,1.3873246908187866,3.081544876098633,2.7854957580566406
1742324429088419000,6.764419189453125,1.5002765655517578,3.161447763442993,2.7599406242370605
1742324429098404000,6.774404052734375,1.6128849983215332,3.312835931777954,2.7766449451446533
1742324429108389000,6.78438916015625,1.7415825128555298,3.4940640926361084,2.831002712249756
1742324429118373000,6.794373046875,1.8816136121749878,3.641613483428955,2.9283370971679688
1742324429128358100,6.804358154296875,2.0414273738861084,3.6365883350372314,3.034116744995117
1742324429138343000,6.814343017578125,2.1729214191436768,3.4377167224884033,3.065079689025879
1742324429148328000,6.824327880859375,2.2404181957244873,3.091648578643799,2.9625000953674316
1742324429158312000,6.83431201171875,2.2170944213867188,2.6414637565612793,2.7190358638763428
1742324429168297000,6.844296875,2.136300802230835,2.1159658432006836,2.351107120513916
1742324429178282000,6.854281982421875,2.011416435241699,1.5620578527450562,1.9069207906723022
1742324429188266000,6.864265869140625,1.813494324684143,1.034856915473938,1.459810733795166
1742324429198251000,6.8742509765625,1.5274187326431274,0.5932360291481018,1.0826690196990967
1742324429208236000,6.884236083984375,1.1955769062042236,0.32142746448516846,0.8341633677482605
1742324429218221000,6.894220947265625,0.9048712253570557,0.3215901553630829,0.7653465270996094
1742324429228205000,6.904205078125,0.7036081552505493,0.5247379541397095,0.9010729789733887
1742324429238189800,6.91418994140625,0.5505313277244568,0.7499256730079651,1.205216646194458
1742324429248174800,6.9241748046875,0.3876236379146576,0.8647162914276123,1.592647910118103
1742324429258159900,6.934159912109375,0.17025642096996307,0.842171847820282,1.9789119958877563
1742324429268143900,6.944143798828125,-0.11699851602315903,0.6788707971572876,2.2906033992767334
1742324429278129000,6.95412890625,-0.4316137731075287,0.4153085947036743,2.491334915161133
1742324429288114000,6.964114013671875,-0.7526064515113831,0.11000965535640717,2.574371576309204
1742324429298099000,6.974098876953125,-1.0452635288238525,-0.23922717571258545,2.580822467803955
1742324429308083000,6.9840830078125,-1.2595537900924683,-0.6230965256690979,2.5351922512054443
1742324429318068000,6.99406787109375,-1.3826557397842407,-0.9935377240180969,2.4406678676605225
1742324429328053000,7.004052978515625,-1.455708622932434,-1.3677091598510742,2.2865402698516846
1742324429338038000,7.0140380859375,-1.5488810539245605,-1.6922310590744019,2.0771193504333496
1742324429348022000,7.02402197265625,-1.6771551370620728,-1.9038597345352173,1.8106727600097656
1742324429358007000,7.034007080078125,-1.8158177137374878,-2.004817485809326,1.5242588520050049
1742324429367991800,7.04399169921875,-1.9447306394577026,-2.004096031188965,1.2526190280914307
1742324429377976800,7.053976806640625,-2.046311378479004,-1.9113255739212036,0.9913383722305298
1742324429387960800,7.0639609375,-2.1313648223876953,-1.7461411952972412,0.7378517985343933
1742324429397945900,7.07394580078125,-2.193209171295166,-1.5394272804260254,0.5255364775657654
1742324429407931000,7.083930908203125,-2.2544894218444824,-1.2633781433105469,0.4244934916496277
1742324429417915000,7.093914794921875,-2.3288679122924805,-0.9139429926872253,0.47581449151039124
1742324429427900000,7.10389990234375,-2.4134881496429443,-0.5849243998527527,0.6902207732200623
1742324429437885000,7.113885009765625,-2.499829053878784,-0.4153389632701874,0.9776535034179688
1742324429447870000,7.123869873046875,-2.5831918716430664,-0.411258727312088,1.2013617753982544
1742324429457854000,7.13385400390625,-2.747468948364258,-0.5481786131858826,1.324008822441101
1742324429467839000,7.1438388671875,-2.969627618789673,-0.8445861339569092,1.399741768836975
1742324429477824000,7.153823974609375,-3.10204815864563,-1.1706551313400269,1.4205814599990845
1742324429487809000,7.16380908203125,-3.0349090099334717,-1.3126574754714966,1.3683075904846191
1742324429497793000,7.17379296875,-2.711867570877075,-1.2470375299453735,1.2063727378845215
1742324429507778000,7.183778076171875,-2.22942852973938,-1.052968978881836,0.9671428799629211
1742324429517762800,7.1937626953125,-1.755042314529419,-0.9962539076805115,0.6046102643013
1742324429527747800,7.203747802734375,-1.467989444732666,-1.085036039352417,0.12543784081935883
1742324429537731800,7.21373193359375,-1.456355094909668,-1.224053144454956,-0.3343437910079956
1742324429547716900,7.223716796875,-1.6171681880950928,-1.4184240102767944,-0.6188178658485413
1742324429557702000,7.233701904296875,-1.737480878829956,-1.56816565990448,-0.6657041311264038
1742324429567687000,7.24368701171875,-1.6933752298355103,-1.5725289583206177,-0.5058600902557373
1742324429577671200,7.253671142578125,-1.4866611957550049,-1.3827844858169556,-0.2788752615451813
1742324429587656000,7.263656005859375,-1.238803505897522,-1.117182731628418,-0.15894939005374908
1742324429597641000,7.273640869140625,-0.9970077872276306,-0.840137243270874,-0.23684437572956085
1742324429607625000,7.283625,-0.7456149458885193,-0.6156817674636841,-0.46079280972480774
1742324429617610000,7.29360986328125,-0.411001980304718,-0.45415937900543213,-0.6930044293403625
1742324429627595000,7.303594970703125,0.025144439190626144,-0.3269721269607544,-0.8248066306114197
1742324429637580000,7.313580078125,0.50294429063797,-0.18566052615642548,-0.8419137597084045
1742324429647564000,7.32356396484375,0.9480583667755127,0.04524191841483116,-0.750053882598877
1742324429657548800,7.333548828125,1.3037184476852417,0.3672220706939697,-0.607639729976654
1742324429667533800,7.343533935546875,1.6105668544769287,0.7476732730865479,-0.47450435161590576
1742324429677518800,7.353518798828125,1.909256935119629,1.1312007904052734,-0.4045996069908142
1742324429687502800,7.3635029296875,2.205591917037964,1.5043243169784546,-0.39102041721343994
1742324429697488000,7.37348779296875,2.458845853805542,1.8393663167953491,-0.44760844111442566
1742324429707473200,7.38347314453125,2.7101757526397705,2.1426825523376465,-0.5706305503845215
1742324429717458000,7.3934580078125,2.983689785003662,2.413356304168701,-0.7473880052566528
1742324429727442000,7.40344189453125,3.2724056243896484,2.655235528945923,-0.9702772498130798
1742324429737427000,7.413427001953125,3.5631139278411865,2.846775531768799,-1.1916089057922363
1742324429747412000,7.423411865234375,3.795222282409668,2.9580652713775635,-1.3994547128677368
1742324429757396000,7.43339599609375,3.9603354930877686,3.0401856899261475,-1.5740453004837036
1742324429767381000,7.443381103515625,4.0787153244018555,3.0984177589416504,-1.6763712167739868
1742324429777366000,7.453365966796875,4.153746604919434,3.1478984355926514,-1.691656231880188
1742324429787350800,7.463350830078125,4.2375078201293945,3.2259433269500732,-1.6324200630187988
1742324429797334800,7.473334716796875,4.301855564117432,3.3329102993011475,-1.5097366571426392
1742324429807319800,7.48331982421875,4.306490421295166,3.415334939956665,-1.360962152481079
1742324429817304800,7.493304931640625,4.225031852722168,3.4837262630462646,-1.2067075967788696
1742324429827290000,7.5032900390625,4.084662914276123,3.5149569511413574,-1.054642677307129
1742324429837273900,7.51327392578125,3.9542360305786133,3.51389741897583,-0.9193155765533447
1742324429847259100,7.523259033203125,3.8211398124694824,3.467902183532715,-0.7908990383148193
1742324429857244000,7.533243896484375,3.6723811626434326,3.367391586303711,-0.6607794165611267
1742324429867229000,7.54322900390625,3.5717318058013916,3.287292003631592,-0.5339682102203369
1742324429877213000,7.553212890625,3.513427734375,3.287740468978882,-0.46967411041259766
1742324429887198000,7.563197998046875,3.5078492164611816,3.3567075729370117,-0.48982810974121094
1742324429897183000,7.573182861328125,3.5241596698760986,3.4438350200653076,-0.5466524958610535
1742324429907167000,7.5831669921875,3.5073904991149902,3.491212844848633,-0.6147236824035645
1742324429917152000,7.593152099609375,3.4318313598632812,3.4456517696380615,-0.6869560480117798
1742324429927137000,7.603136962890625,3.267462968826294,3.304490089416504,-0.7447251081466675
1742324429937121800,7.613121826171875,3.0565381050109863,3.1235291957855225,-0.7735942006111145
1742324429947105800,7.623105712890625,2.893277883529663,2.9646244049072266,-0.7969394326210022
1742324429957090800,7.6330908203125,2.7726376056671143,2.864534378051758,-0.8495396375656128
1742324429967075800,7.643075927734375,2.6705729961395264,2.9147346019744873,-0.9159804582595825
1742324429977061000,7.65306103515625,2.575571060180664,3.1028950214385986,-0.9669360518455505
1742324429987045000,7.663045166015625,2.454030752182007,3.2650272846221924,-1.0091265439987183
1742324429997030100,7.673030029296875,2.3257439136505127,3.311258316040039,-1.071922779083252
1742324430007015000,7.683014892578125,2.251516580581665,3.2824623584747314,-1.1796270608901978
1742324430017000000,7.693,2.1971490383148193,3.1541435718536377,-1.4110233783721924
1742324430026984000,7.70298388671875,2.284471273422241,2.905569314956665,-1.7150146961212158
1742324430036969000,7.712968994140625,2.582267999649048,2.7135872840881348,-2.0332305431365967
1742324430046954000,7.7229541015625,2.807781219482422,2.5442631244659424,-2.3412270545959473
1742324430056938000,7.73293798828125,2.9423437118530273,2.388652801513672,-2.5593793392181396
1742324430066923000,7.742923095703125,3.002643585205078,2.3016464710235596,-2.645766496658325
1742324430076907800,7.75290771484375,2.890098810195923,2.0906810760498047,-2.486941337585449
1742324430086892800,7.762892822265625,2.59016489982605,1.6198558807373047,-2.0779104232788086
1742324430096876800,7.772876708984375,2.1332743167877197,1.0126497745513916,-1.5265687704086304
1742324430106861800,7.78286181640625,1.5627144575119019,0.4277067184448242,-0.8858940005302429
1742324430116847000,7.79284716796875,0.9771106243133545,-0.02764423005282879,-0.18157859146595
1742324430126832000,7.80283203125,0.5050511956214905,-0.2982802391052246,0.5096925497055054
1742324430136815900,7.81281591796875,0.17487755417823792,-0.4656769037246704,1.1851160526275635
1742324430146800600,7.822800537109375,-0.04930626600980759,-0.6543583869934082,1.8054660558700562
1742324430156785700,7.83278564453125,-0.189088836312294,-0.8815669417381287,2.3499984741210938
1742324430166770700,7.842770751953125,-0.27237412333488464,-1.1648926734924316,2.8188636302948
1742324430176754700,7.852754638671875,-0.3162935972213745,-1.460889458656311,3.1520280838012695
1742324430186739700,7.86273974609375,-0.3552239239215851,-1.6188162565231323,3.318302631378174
1742324430196724700,7.872724853515625,-0.4606271982192993,-1.6093095541000366,3.3665409088134766
1742324430206709500,7.88270947265625,-0.6627651453018188,-1.5025972127914429,3.3599250316619873
1742324430216693800,7.89269384765625,-0.8964859247207642,-1.4038877487182617,3.2727437019348145
1742324430226678500,7.902678466796875,-1.137274146080017,-1.2869257926940918,3.104700803756714
1742324430236663600,7.91266357421875,-1.3921568393707275,-1.1651228666305542,2.8962130546569824
1742324430246648800,7.92264892578125,-1.6309462785720825,-1.0035278797149658,2.652794599533081
1742324430256632800,7.9326328125,-1.8368027210235596,-0.8595161437988281,2.3966987133026123
1742324430266617900,7.942617919921875,-1.9510565996170044,-0.8038395643234253,2.1666367053985596
1742324430277850600,7.9538505859375,-1.9248790740966797,-0.9046539664268494,1.9884417057037354
1742324430287834600,7.963834716796875,-1.7478281259536743,-1.0434783697128296,1.9913839101791382
1742324430297819600,7.973819580078125,-1.4495540857315063,-1.1678251028060913,2.25675630569458
1742324430307804700,7.9838046875,-1.1784859895706177,-1.2038217782974243,2.768869161605835
1742324430317789700,7.993789794921875,-1.0234370231628418,-1.0830820798873901,3.407313585281372
1742324430327773700,8.003773681640626,-0.8529549837112427,-0.8409358859062195,4.05906343460083
1742324430337758700,8.0137587890625,-0.5853109955787659,-0.4946005642414093,4.551760673522949
1742324430347743700,8.02374365234375,-0.25278791785240173,-0.027567051351070404,4.781250476837158
1742324430357728800,8.033728759765625,0.06882312893867493,0.5221842527389526,4.744809627532959
1742324430367712800,8.043712646484375,0.3653435707092285,1.040574550628662,4.509959697723389
1742324430377697800,8.05369775390625,0.5725311040878296,1.3866691589355469,4.1899590492248535
1742324430387682600,8.0636826171875,0.7286754846572876,1.5238937139511108,3.8998019695281982
1742324430397666800,8.073666748046875,0.9789692163467407,1.5428810119628906,3.7073071002960205
1742324430407651600,8.083651611328126,1.3063257932662964,1.6163527965545654,3.5931272506713867
1742324430417636600,8.09363671875,1.5803745985031128,1.7701910734176636,3.59869122505188
1742324430427621600,8.10362158203125,1.7687422037124634,1.9954612255096436,3.795093059539795
1742324430437605600,8.113605712890624,1.8880656957626343,2.195557117462158,4.080159664154053
1742324430447590700,8.123590576171875,1.9547353982925415,2.2417197227478027,4.313168048858643
1742324430457575700,8.13357568359375,1.9721931219100952,2.141049385070801,4.389107704162598
1742324430467560700,8.143560791015625,1.9933171272277832,2.035331964492798,4.317175388336182
1742324430477544700,8.153544677734375,2.1120123863220215,1.9008113145828247,4.179160118103027
1742324430487529700,8.16352978515625,2.3166000843048096,1.761256217956543,4.109547138214111
1742324430497514800,8.1735146484375,2.567589282989502,1.4888612031936646,4.170465469360352
1742324430507499800,8.183499755859375,2.761469602584839,1.0797815322875977,4.35119104385376
1742324430517483800,8.19348388671875,2.8111085891723633,0.6567608118057251,4.529199123382568
1742324430527468800,8.20346875,2.737656831741333,0.3521994948387146,4.59687614440918
1742324430537453600,8.21345361328125,2.6234521865844727,0.27693110704421997,4.541323661804199
1742324430547437600,8.2234375,2.590885877609253,0.1675470471382141,4.445914268493652
1742324430557422600,8.233422607421875,2.7215986251831055,-0.10609647631645203,4.3754048347473145
1742324430567407600,8.24340771484375,2.766697406768799,-0.4468899071216583,4.19192361831665
1742324430577392600,8.253392578125,2.5815041065216064,-0.8577837347984314,3.8560054302215576
1742324430587376600,8.263376708984374,2.2049429416656494,-1.3590037822723389,3.4350123405456543
1742324430597362000,8.27336181640625,1.678593635559082,-1.8762813806533813,3.033672571182251
1742324430607346700,8.2833466796875,1.1098887920379639,-2.271981954574585,2.767730712890625
1742324430617331700,8.293331787109375,0.7554053664207458,-2.346766233444214,2.5898830890655518
1742324430627939600,8.303939697265625,0.6889234185218811,-2.0170116424560547,2.4770069122314453
1742324430637923800,8.313923828125,0.9035279154777527,-1.634318470954895,2.5309906005859375
1742324430647908600,8.32390869140625,1.2126023769378662,-1.3594541549682617,2.667196750640869
1742324430657893600,8.3338935546875,1.4154412746429443,-1.291525959968567,2.761049747467041
1742324430667878700,8.343878662109375,1.5772943496704102,-1.4700555801391602,2.8278448581695557
1742324430677862700,8.353862548828126,1.8490885496139526,-1.8068606853485107,2.8299002647399902
1742324430687847700,8.36384765625,2.1045594215393066,-2.121868133544922,2.762495517730713
1742324430697832700,8.373832763671874,2.291628122329712,-2.1541380882263184,2.613046407699585
1742324430707817700,8.383817626953125,2.485077381134033,-1.925720453262329,2.364640951156616
1742324430717801700,8.3938017578125,2.7887187004089355,-1.532465934753418,2.0430428981781006
1742324430727786800,8.403786865234375,3.2611448764801025,-1.1002756357192993,1.6652923822402954
1742324430737771800,8.413771728515625,3.779719114303589,-0.7599046230316162,1.2214133739471436
1742324430747756800,8.4237568359375,4.169739723205566,-0.7952967286109924,0.7210429906845093
1742324430757740800,8.43374072265625,4.22583532333374,-1.138808250427246,0.24162578582763672
1742324430767725800,8.443725830078124,3.9348626136779785,-1.6806137561798096,-0.09323475509881973
1742324430777710600,8.453710693359374,3.3220720291137695,-2.1715352535247803,-0.2252255231142044
1742324430787695600,8.463695556640625,2.554823637008667,-2.3454489707946777,-0.1974916309118271
1742324430797679600,8.4736796875,2.025861978530884,-1.987252950668335,-0.07192009687423706
1742324430807664600,8.48366455078125,1.8330578804016113,-1.3939428329467773,0.12263580411672592
1742324430817649700,8.493649658203125,1.8942358493804932,-0.8545467257499695,0.3573381006717682
1742324430827633700,8.503633544921875,2.0313384532928467,-0.5239938497543335,0.48275354504585266
1742324430837618700,8.51361865234375,2.0850911140441895,-0.4607679545879364,0.41150036454200745
1742324430847603700,8.523603759765624,1.9519197940826416,-0.6134637594223022,0.1442718505859375
1742324430857588700,8.533588623046874,1.5213749408721924,-0.8940088152885437,-0.25348037481307983
1742324430867572700,8.54357275390625,1.0475882291793823,-1.1270511150360107,-0.5658134818077087
1742324430877557800,8.553557861328125,0.7714682221412659,-1.1351479291915894,-0.7943175435066223
1742324430887542800,8.563542724609375,0.7442286014556885,-1.005829930305481,-0.931979238986969
1742324430897527800,8.57352783203125,0.8172898888587952,-0.7054635882377625,-1.081967830657959
1742324430907511800,8.58351171875,0.7953470349311829,-0.41164398193359375,-1.3778716325759888
1742324430917496600,8.59349658203125,0.6340256333351135,-0.32573461532592773,-1.8474411964416504
1742324430927481600,8.603481689453124,0.3398091793060303,-0.5525853633880615,-2.3499622344970703
1742324430937466600,8.613466552734375,-0.004024456720799208,-0.9587087631225586,-2.7264602184295654
1742324430947450600,8.62345068359375,-0.3157953917980194,-1.2509506940841675,-2.932425022125244
1742324430957435600,8.633435546875,-0.47818756103515625,-1.2238900661468506,-2.997918128967285
1742324430967420700,8.643420654296875,-0.4874787926673889,-0.9231011867523193,-2.967604160308838
1742324430977405700,8.65340576171875,-0.42344921827316284,-0.5167549848556519,-2.908370018005371
1742324430987389700,8.6633896484375,-0.25265616178512573,-0.13733018934726715,-2.899386405944824
1742324430997374700,8.673374755859374,-0.040824271738529205,0.048181239515542984,-2.97906231880188
1742324431007359700,8.68335986328125,0.11865194141864777,-0.08390995115041733,-3.0896732807159424
1742324431017344800,8.6933447265625,0.16701975464820862,-0.2930241525173187,-3.234776496887207
1742324431027328800,8.703328857421875,-0.027112433686852455,-0.3694970905780792,-3.451756477355957
1742324431037313800,8.713313720703125,-0.4178197383880615,-0.2483721226453781,-3.7850139141082764
1742324431047298600,8.723298583984375,-0.7972195744514465,-0.09700897336006165,-4.104732513427734
1742324431057283600,8.73328369140625,-0.8965292572975159,0.09101595729589462,-4.294472694396973
1742324431067267600,8.743267578125,-0.7192255854606628,0.34856945276260376,-4.316753387451172
1742324431077252600,8.753252685546874,-0.41758665442466736,0.6474628448486328,-4.178171634674072
1742324431087237600,8.763237548828124,-0.20680703222751617,0.9499452114105225,-4.056729793548584
1742324431097223000,8.773222900390625,-0.21010538935661316,1.162445306777954,-4.040199279785156
1742324431107206700,8.78320654296875,-0.39008021354675293,1.2376588582992554,-4.0951738357543945
1742324431117191700,8.793191650390625,-0.5677796602249146,1.166126012802124,-4.212203025817871
1742324431127176700,8.8031767578125,-0.625204861164093,1.0091999769210815,-4.424895286560059
1742324431137162000,8.813161865234376,-0.5648699998855591,0.8706673979759216,-4.668791770935059
1742324431147146000,8.82314599609375,-0.40199804306030273,0.805115282535553,-4.80145263671875
1742324431157131000,8.833131103515624,-0.19645912945270538,0.8052924871444702,-4.780196189880371
1742324431167116000,8.843115966796875,0.06608222424983978,0.9026339650154114,-4.5664496421813965
1742324431177100800,8.853100830078125,0.31150487065315247,1.1848539113998413,-4.2444353103637695
1742324431187084800,8.863084716796875,0.437177836894989,1.546531081199646,-3.9124536514282227
1742324431197069800,8.87306982421875,0.4291808605194092,1.8515567779541016,-3.604539632797241
1742324431207054800,8.883054931640626,0.33261623978614807,2.1039445400238037,-3.3725664615631104
1742324431217040000,8.893039794921876,0.2255137413740158,2.244515895843506,-3.2176380157470703
1742324431227024000,8.90302392578125,0.16565600037574768,2.282163381576538,-3.1325035095214844
1742324431237009200,8.913009033203124,0.12009242177009583,2.319597005844116,-3.1055362224578857
1742324431246994000,8.922993896484375,0.1583133041858673,2.344748020172119,-3.0970184803009033
1742324431256979000,8.93297900390625,0.21959881484508514,2.3483545780181885,-3.1928048133850098
1742324431266963000,8.942962890625,0.30092722177505493,2.2873783111572266,-3.353543996810913
1742324431276948000,8.952947998046875,0.44986283779144287,2.187262535095215,-3.510608434677124
1742324431286933000,8.96293310546875,0.6219363212585449,2.0669620037078857,-3.6764254570007324
1742324431296918000,8.97291796875,0.7733724117279053,1.947509527206421,-3.8575599193573
1742324431306902000,8.982902099609374,0.8841971755027771,1.819415807723999,-4.018980026245117
1742324431316886800,8.99288671875,0.9940382838249207,1.7075471878051758,-4.069347858428955
1742324431326871800,9.002871826171875,1.1250035762786865,1.6828376054763794,-3.9087748527526855
1742324431336856800,9.01285693359375,1.3156733512878418,1.7919349670410156,-3.5881266593933105
1742324431346840800,9.0228408203125,1.4527206420898438,2.015657663345337,-3.375743865966797
1742324431356825900,9.032825927734375,1.4777294397354126,2.2062177658081055,-3.449373722076416
1742324431366811100,9.04281103515625,1.422603964805603,2.168193817138672,-3.756326675415039
1742324431376796000,9.0527958984375,1.3288644552230835,1.8347505331039429,-4.127016544342041
1742324431386780000,9.06277978515625,1.2810410261154175,1.2298113107681274,-4.362534999847412
1742324431396765000,9.072764892578125,1.2339413166046143,0.49310600757598877,-4.379197597503662
1742324431406750000,9.08275,1.1457382440567017,-0.12269140034914017,-4.275906085968018
1742324431416734000,9.09273388671875,1.0442800521850586,-0.4371160864830017,-4.13722038269043
1742324431426719000,9.102718994140625,0.9202978610992432,-0.45696011185646057,-4.082592010498047
1742324431436704000,9.1127041015625,0.7799493074417114,-0.23111170530319214,-4.093710422515869
1742324431446688800,9.122688720703126,0.6230598092079163,0.10060709714889526,-3.9312124252319336
1742324431456673000,9.132673095703124,0.36732831597328186,0.28231942653656006,-3.399522304534912
1742324431466657800,9.14265771484375,-0.012961480766534805,0.24867120385169983,-2.457437038421631
1742324431476642800,9.152642822265625,-0.4935622811317444,0.061948250979185104,-1.2612606287002563
1742324431486628000,9.162628173828125,-1.0444438457489014,-0.13071520626544952,-0.07575634121894836
1742324431496611800,9.17261181640625,-1.6358140707015991,-0.32429060339927673,0.8766115307807922
1742324431506597000,9.18259716796875,-2.2175238132476807,-0.6617969870567322,1.554657220840454
1742324431516582000,9.192581787109376,-2.7327003479003906,-1.249613642692566,2.038165807723999
1742324431526567000,9.20256689453125,-3.126115322113037,-1.9700525999069214,2.4021623134613037
1742324431536551000,9.212551025390624,-3.370511054992676,-2.6077353954315186,2.6910228729248047
1742324431546536000,9.222535888671874,-3.4731712341308594,-3.0003020763397217,2.9539358615875244
1742324431556521000,9.23252099609375,-3.4512202739715576,-3.107430934906006,3.233891248703003
1742324431566506000,9.242506103515625,-3.365506410598755,-2.8705103397369385,3.555270195007324
1742324431576490000,9.252489990234375,-3.2912087440490723,-2.375835418701172,3.929096221923828
1742324431586475000,9.26247509765625,-3.2683372497558594,-1.790858507156372,4.347425937652588
1742324431596459800,9.272459716796876,-3.261770725250244,-1.183199167251587,4.788633823394775
1742324431606444800,9.28244482421875,-3.1570231914520264,-0.5879091024398804,5.193251132965088
1742324431616428800,9.2924287109375,-2.9564108848571777,-0.07441724091768265,5.482114791870117
1742324431626414000,9.3024140625,-2.6647818088531494,0.31230810284614563,5.626953125
1742324431636399000,9.312399169921875,-2.2610182762145996,0.6420252323150635,5.645783424377441
1742324431646384000,9.322384033203125,-1.8647359609603882,0.9304397106170654,5.5381269454956055
1742324431656368000,9.3323681640625,-1.5888497829437256,1.0841610431671143,5.4256272315979
1742324431666353000,9.342352783203125,-1.4231574535369873,0.8679917454719543,5.47621488571167
1742324431676338000,9.352337890625,-1.2677680253982544,0.2831111252307892,5.699987411499023
1742324431686323000,9.362322998046874,-1.0784633159637451,-0.3875228762626648,6.107911586761475
1742324431696307000,9.372306884765624,-0.8429666757583618,-0.9906643033027649,6.56941032409668
1742324431706292000,9.3822919921875,-0.6197519898414612,-1.3020554780960083,6.873330116271973
1742324431716277000,9.392277099609375,-0.35151487588882446,-1.3226604461669922,6.868447780609131
1742324431726261800,9.40226171875,-0.04164569824934006,-1.1931980848312378,6.450652122497559
1742324431736245800,9.412245849609375,0.28012940287590027,-1.0226720571517944,5.7495503425598145
1742324431746230800,9.422230712890626,0.6408694982528687,-0.9272974729537964,5.02841329574585
1742324431756216000,9.432216064453126,0.9448426365852356,-0.9747161865234375,4.4807538986206055
1742324431766199800,9.44219970703125,1.1595501899719238,-1.1017694473266602,4.1527605056762695
1742324431776185000,9.45218505859375,1.2649407386779785,-1.1264195442199707,3.910268783569336
1742324431786170000,9.462170166015625,1.2628551721572876,-1.1154694557189941,3.665184736251831
1742324431796155000,9.47215478515625,1.210016131401062,-1.0723967552185059,3.357407808303833
1742324431806139000,9.482138916015625,1.1339114904403687,-0.8647971749305725,2.9797701835632324
1742324431816124000,9.4921240234375,1.095360517501831,-0.5314469933509827,2.6055214405059814
1742324431826109000,9.50210888671875,1.0908507108688354,-0.17161746323108673,2.2417352199554443
1742324431836094000,9.512093994140624,1.135852336883545,0.07739811390638351,1.8772811889648438
1742324431846078000,9.522077880859374,1.1496126651763916,0.11644245684146881,1.4187068939208984
1742324431856063000,9.53206298828125,1.0311052799224854,-0.023741763085126877,0.7793105244636536
1742324431866047700,9.5420478515625,0.8132261633872986,-0.38037046790122986,0.030391309410333633
1742324431876032800,9.55203271484375,0.5470088124275208,-0.7882194519042969,-0.7021673917770386
1742324431886016800,9.562016845703125,0.31324267387390137,-1.100149393081665,-1.332984209060669
1742324431896002000,9.572001953125,0.208748921751976,-1.2379615306854248,-1.7438863515853882
1742324431905987000,9.581987060546876,0.20547457039356232,-1.1258842945098877,-1.936359167098999
1742324431915972000,9.59197216796875,0.21719813346862793,-0.8223400712013245,-1.932235836982727
1742324431925956000,9.6019560546875,0.28092706203460693,-0.5360726118087769,-1.7578885555267334
1742324431935940900,9.61194091796875,0.3816854953765869,-0.4514467120170593,-1.5373281240463257
1742324431945926000,9.62192578125,0.4255474805831909,-0.5172795653343201,-1.407516360282898
1742324431955911000,9.631910888671875,0.36595556139945984,-0.5445840358734131,-1.4392523765563965
1742324431965895000,9.64189501953125,0.19277554750442505,-0.483577162027359,-1.6365716457366943
1742324431975880000,9.6518798828125,0.02033081278204918,-0.429842084646225,-1.9324816465377808
1742324431985865000,9.661864990234376,-0.09364742040634155,-0.4923509955406189,-2.196429967880249
1742324431995849000,9.671848876953124,-0.050244688987731934,-0.650566041469574,-2.344804048538208
1742324432005834000,9.681833984375,0.06207386404275894,-0.7617180943489075,-2.3727662563323975
1742324432015818800,9.69181884765625,0.13948562741279602,-0.6101248860359192,-2.296210527420044
1742324432025804000,9.701803955078125,0.14420582354068756,-0.18779146671295166,-2.154024124145508
1742324432035788000,9.7117880859375,0.0803128257393837,0.39260637760162354,-2.022944450378418
1742324432045773000,9.72177294921875,-0.021622326225042343,0.9240809082984924,-1.9543112516403198
1742324432055758000,9.731758056640626,-0.1563577800989151,1.2741068601608276,-1.9776537418365479
1742324432065742800,9.741742919921874,-0.25326007604599,1.3627088069915771,-2.082273006439209
1742324432075727000,9.75172705078125,-0.27294921875,1.2464357614517212,-2.1754209995269775
1742324432085712000,9.7617119140625,-0.34455761313438416,1.2172480821609497,-2.2153773307800293
1742324432095697000,9.77169677734375,-0.47924429178237915,1.3847386837005615,-2.261557102203369
1742324432105682000,9.781681884765625,-0.6249112486839294,1.682464361190796,-2.352649211883545
1742324432115666000,9.791666015625,-0.7348401546478271,1.9484440088272095,-2.4449384212493896
1742324432125651000,9.80165087890625,-0.7737715840339661,2.1319572925567627,-2.5257320404052734
1742324432135636000,9.811635986328126,-0.7278997302055359,2.2939279079437256,-2.6169142723083496
1742324432145620000,9.821619873046876,-0.635776698589325,2.445600748062134,-2.751088857650757
1742324432155605000,9.83160498046875,-0.5546387434005737,2.5317299365997314,-2.885881185531616
1742324432165590000,9.841590087890625,-0.5426180362701416,2.527843475341797,-3.0187761783599854
1742324432175575000,9.851574951171875,-0.5588347315788269,2.516092300415039,-3.1471142768859863
1742324432185559000,9.86155908203125,-0.5635693073272705,2.540828227996826,-3.226125955581665
1742324432195544000,9.8715439453125,-0.4991128444671631,2.6135995388031006,-3.257462501525879
1742324432205529000,9.881529052734376,-0.3702251613140106,2.7288761138916016,-3.2627780437469482
1742324432215513900,9.891513916015626,-0.25297313928604126,2.8795342445373535,-3.2490882873535156
1742324432225497900,9.901497802734376,-0.1624869406223297,3.047895669937134,-3.231905698776245
1742324432235483000,9.91148291015625,-0.09988769888877869,3.196115493774414,-3.240300416946411
1742324432245468000,9.921468017578125,-0.06758727878332138,3.2852675914764404,-3.2769181728363037
1742324432255453000,9.931452880859375,-0.008022359572350979,3.281102180480957,-3.3397226333618164
1742324432265437000,9.94143701171875,0.07491780072450638,3.2047839164733887,-3.40425443649292
1742324432275422200,9.951422119140625,0.14977408945560455,3.113706111907959,-3.4831902980804443
1742324432285407000,9.961406982421876,0.22999915480613708,3.0357251167297363,-3.5906317234039307
1742324432295392000,9.97139208984375,0.3254481852054596,2.9801836013793945,-3.7202558517456055
1742324432305376000,9.9813759765625,0.4203014671802521,2.928579807281494,-3.819693088531494
1742324432315361000,9.991361083984375,0.501977801322937,2.899848461151123,-3.869908571243286
1742324432325346000,10.001345947265625,0.598732054233551,2.934180736541748,-3.8505818843841553
1742324432335330000,10.011330078125,0.7286595702171326,3.185222625732422,-3.774954080581665
1742324432345315000,10.021315185546875,0.8121904134750366,3.480703353881836,-3.6997106075286865
1742324432355299800,10.0312998046875,0.8333603739738464,3.659848928451538,-3.6831955909729004
1742324432365284900,10.041284912109376,0.859981894493103,3.656397581100464,-3.7323858737945557
1742324432375268900,10.051268798828126,0.8883841633796692,3.466844081878662,-3.7521183490753174
1742324432385254000,10.06125390625,0.9132101535797119,3.1838228702545166,-3.6414380073547363
1742324432395239000,10.071239013671875,0.9563428163528442,2.9485113620758057,-3.344309091567993
1742324432405224200,10.08122412109375,1.0078805685043335,2.913466691970825,-2.931349515914917
1742324432415208200,10.091208251953125,1.0685662031173706,2.9927573204040527,-2.500920057296753
1742324432425193000,10.10119287109375,1.163515567779541,2.9853363037109375,-2.0703001022338867
1742324432435178000,10.111177978515625,1.2569926977157593,2.7701056003570557,-1.6064847707748413
1742324432445162000,10.121161865234376,1.3056962490081787,2.45346999168396,-1.1326930522918701
1742324432455147000,10.13114697265625,1.2636549472808838,2.2017300128936768,-0.6974581480026245
1742324432465132000,10.141132080078124,1.1317507028579712,2.007359266281128,-0.3503105938434601
1742324432475117000,10.151116943359375,0.9200185537338257,1.755119800567627,-0.09820032119750977
1742324432485101000,10.16110107421875,0.6086848974227905,1.3810311555862427,0.10907644033432007
1742324432495086000,10.171086181640625,0.2920716106891632,0.8991385102272034,0.2479926198720932
1742324432505070800,10.18107080078125,0.015796080231666565,0.36841925978660583,0.2850015163421631
1742324432515055900,10.191055908203126,-0.22086134552955627,-0.2412949949502945,0.26348674297332764
1742324432525039900,10.201039794921876,-0.41839277744293213,-0.8920906186103821,0.29351386427879333
1742324432535025000,10.21102490234375,-0.5699009299278259,-1.445586085319519,0.46583718061447144
1742324432545010200,10.22101025390625,-0.7101755142211914,-1.8185431957244873,0.8104802966117859
1742324432554995000,10.230994873046875,-0.9275935292243958,-2.0342156887054443,1.2772990465164185
1742324432564979200,10.240979248046875,-1.2229604721069336,-2.1794092655181885,1.7753891944885254
1742324432574964000,10.2509638671875,-1.532096266746521,-2.316279411315918,2.235466480255127
1742324432584949000,10.260948974609375,-1.8165035247802734,-2.466897964477539,2.6285958290100098
1742324432594933000,10.27093310546875,-2.0129783153533936,-2.6573948860168457,2.936850070953369
1742324432604918000,10.28091796875,-2.0582680702209473,-2.877521514892578,3.2073934078216553
1742324432614903000,10.290903076171874,-2.000271797180176,-3.0549254417419434,3.512190580368042
1742324432624888000,10.30088818359375,-1.9171700477600098,-3.126016616821289,3.8716647624969482
1742324432634872000,10.3108720703125,-1.8152672052383423,-3.025381565093994,4.232807159423828
1742324432644856800,10.32085693359375,-1.7075124979019165,-2.7583553791046143,4.5393805503845215
1742324432654841900,10.330841796875,-1.5587022304534912,-2.448276996612549,4.7430100440979
1742324432664827000,10.340826904296875,-1.4083527326583862,-2.234320640563965,4.800967693328857
1742324432674811000,10.350810791015626,-1.2608522176742554,-2.227066993713379,4.758781909942627
1742324432684796200,10.360796142578126,-1.173744559288025,-2.3548543453216553,4.689486026763916
1742324432694781200,10.37078125,-1.1354031562805176,-2.4814062118530273,4.665988922119141
1742324432704765200,10.38076513671875,-1.1142592430114746,-2.5876588821411133,4.730284690856934
1742324432714750000,10.39075,-1.0818599462509155,-2.5615956783294678,4.785472393035889
1742324432724735000,10.40073486328125,-1.0281383991241455,-2.3784232139587402,4.710926532745361
1742324432734720000,10.410719970703125,-0.9416192770004272,-2.0913684368133545,4.397058963775635
1742324432744704000,10.4207041015625,-0.9289021492004395,-1.8841335773468018,3.8393349647521973
1742324432754689000,10.43068896484375,-1.0572633743286133,-1.9558087587356567,3.0508339405059814
1742324432764674000,10.440674072265624,-1.2877795696258545,-2.2703845500946045,2.1273937225341797
1742324432774658800,10.450658935546874,-1.4226226806640625,-2.7828469276428223,1.4184049367904663
1742324432784642800,10.460642822265624,-1.499404788017273,-3.2645459175109863,0.989968478679657
1742324432794627800,10.4706279296875,-1.5779844522476196,-3.4571664333343506,0.6201294660568237
1742324432804612900,10.48061279296875,-1.6323542594909668,-3.3494842052459717,0.19445966184139252
1742324432814596900,10.490596923828125,-1.6417185068130493,-3.0816056728363037,-0.30184194445610046
1742324432824582100,10.50058203125,-1.5575895309448242,-2.825782060623169,-0.8056502342224121
1742324432834567200,10.510567138671876,-1.4119395017623901,-2.692963123321533,-1.236266016960144
1742324432844552000,10.520552001953124,-1.2374329566955566,-2.6179842948913574,-1.4579282999038696
1742324432854536000,10.530535888671874,-1.0437421798706055,-2.5476231575012207,-1.322553277015686
1742324432864521000,10.54052099609375,-0.9064684510231018,-2.341830015182495,-0.9151406288146973
1742324432874506000,10.550506103515625,-0.7884871959686279,-1.8815308809280396,-0.4409869909286499
1742324432884491000,10.560490966796875,-0.6422354578971863,-1.2115586996078491,-0.059372514486312866
1742324432894475000,10.57047509765625,-0.453132688999176,-0.49552610516548157,0.15714803338050842
1742324432904460000,10.5804599609375,-0.17171752452850342,0.1614251285791397,0.21282993257045746
1742324432914444800,10.59044482421875,0.22622640430927277,0.674800455570221,0.1317196637392044
1742324432924429000,10.600428955078126,0.6632314324378967,0.8990538120269775,0.02787768468260765
1742324432934413800,10.610413818359374,1.0517734289169312,0.8592416048049927,-0.00037367455661296844
1742324432944398800,10.62039892578125,1.3232531547546387,0.6958484053611755,0.03850208595395088
1742324432954384100,10.630384033203125,1.422726035118103,0.7063862085342407,0.07460407167673111
1742324432964368000,10.640367919921875,1.3593361377716064,0.9339197874069214,0.041526008397340775
1742324432974353200,10.650353271484375,1.156996488571167,1.2527589797973633,-0.11630748957395554
1742324432984338000,10.660337890625,0.8763182163238525,1.473428726196289,-0.42437559366226196
1742324432994323000,10.670322998046874,0.6535772681236267,1.5073270797729492,-0.8009005784988403
1742324433004307000,10.680306884765624,0.5392003655433655,1.3949661254882812,-1.065938949584961
1742324433014292000,10.6902919921875,0.5062524676322937,1.2245944738388062,-1.1265119314193726
1742324433024277000,10.700277099609375,0.5363770723342896,1.1719284057617188,-1.025525450706482
1742324433034261000,10.710260986328125,0.6114909648895264,1.2989637851715088,-0.8140313625335693
1742324433044246000,10.72024609375,0.704687237739563,1.530322790145874,-0.583248496055603
1742324433054231000,10.73023095703125,0.8192434310913086,1.8488909006118774,-0.4220293164253235
1742324433064215800,10.7402158203125,0.9249288439750671,2.1822872161865234,-0.3471377491950989
1742324433074199800,10.75019970703125,1.000339150428772,2.4061856269836426,-0.31799742579460144
1742324433084184800,10.760184814453124,1.051742434501648,2.507645845413208,-0.26665380597114563
1742324433094170000,10.770170166015625,1.1020342111587524,2.503551959991455,-0.15494883060455322
1742324433104155100,10.780155029296875,1.118951678276062,2.446734666824341,-0.0034706303849816322
1742324433114139100,10.79013916015625,1.0836607217788696,2.3773648738861084,0.13108544051647186
1742324433124124200,10.800124267578125,0.9901124238967896,2.333552598953247,0.18938176333904266
1742324433134109200,10.810109130859376,0.861426055431366,2.328979015350342,0.16004829108715057
1742324433144093200,10.82009326171875,0.7184489369392395,2.344442367553711,0.0739687904715538
1742324433154078200,10.830078125,0.6258813142776489,2.3311045169830322,-0.011548332870006561
1742324433164063200,10.840063232421874,0.6192545890808105,2.273024797439575,-0.03368346393108368
1742324433174048300,10.85004833984375,0.6177884340286255,2.163041830062866,0.015195751562714577
1742324433184032300,10.8600322265625,0.5968277454376221,2.0532596111297607,0.09033683687448502
1742324433194017300,10.870017333984375,0.6130020618438721,1.9657409191131592,0.12078661471605301
1742324433204002000,10.880001953125,0.6528218984603882,1.8587849140167236,0.11357397586107254
1742324433213986000,10.889986083984375,0.7379393577575684,1.7309995889663696,0.10339903831481934
1742324433223971000,10.89997119140625,0.8761425018310547,1.6628413200378418,0.07705184817314148
1742324433233956000,10.9099560546875,1.0084227323532104,1.677526593208313,0.02802201360464096
1742324433243941400,10.91994140625,1.1078089475631714,1.6943329572677612,-0.007412942126393318
1742324433253925000,10.929925048828125,1.1066617965698242,1.699662685394287,-0.00469244783744216
1742324433263910400,10.939910400390625,0.9003245830535889,1.7214553356170654,0.06583311408758163
1742324433273895200,10.949895263671875,0.5440691709518433,1.7740838527679443,0.217515230178833
1742324433283880200,10.959880126953125,0.1945633590221405,1.8063907623291016,0.4677777886390686
1742324433293864200,10.9698642578125,-0.06982403248548508,1.7852189540863037,0.7929468750953674
1742324433303849200,10.97984912109375,-0.08673377335071564,1.7388663291931152,1.0700865983963013
1742324433313834200,10.989834228515624,0.1425331085920334,1.7931569814682007,1.194419026374817
1742324433323818200,10.999818359375,0.4844595491886139,1.9035100936889648,1.1909725666046143
1742324433333803300,11.00980322265625,0.8295722007751465,1.9480509757995605,1.1652175188064575
1742324433343788000,11.0197880859375,1.1157898902893066,1.9827477931976318,1.170945167541504
1742324433353773000,11.02977294921875,1.3151425123214722,2.0380566120147705,1.1837297677993774
1742324433363757000,11.039757080078125,1.4047802686691284,2.0409789085388184,1.2168853282928467
1742324433373742000,11.0497421875,1.3991090059280396,2.0354628562927246,1.341880440711975
1742324433383727000,11.05972705078125,1.2478777170181274,2.052642345428467,1.566129446029663
1742324433393712400,11.06971240234375,0.9615499973297119,1.9982826709747314,1.84988534450531
1742324433403696400,11.0796962890625,0.665510356426239,1.8949834108352661,2.112954616546631
1742324433413681200,11.08968115234375,0.4667617380619049,1.7377086877822876,2.272256851196289
1742324433423666200,11.099666259765625,0.4091985821723938,1.4389015436172485,2.3001675605773926
1742324433433650200,11.109650146484375,0.5024169087409973,1.076784610748291,2.225264072418213
1742324433443635200,11.11963525390625,0.6887305974960327,0.7967555522918701,2.0864665508270264
1742324433453620200,11.1296201171875,0.8362253308296204,0.7406799793243408,1.893459439277649
1742324433463605200,11.139605224609374,0.864282488822937,0.9196550846099854,1.6628296375274658
1742324433473589200,11.14958935546875,0.7288417816162109,1.0557246208190918,1.4546153545379639
1742324433483574300,11.15957421875,0.4502394497394562,1.047776222229004,1.3360333442687988
1742324433493559000,11.16955908203125,0.1566881686449051,0.8099082112312317,1.3256415128707886
1742324433503543000,11.17954296875,-0.10786387324333191,0.31064775586128235,1.4808766841888428
1742324433513528000,11.189528076171875,-0.27285197377204895,-0.23362071812152863,1.7942410707473755
1742324433523513000,11.19951318359375,-0.30432653427124023,-0.4933069050312042,2.184163808822632
1742324433533498400,11.209498291015626,-0.22979293763637543,-0.5044857859611511,2.5721120834350586
1742324433543482400,11.219482421875,-0.1213492900133133,-0.30984410643577576,2.9250454902648926
1742324433553467400,11.22946728515625,-0.027714397758245468,-0.027002960443496704,3.1319637298583984
1742324433563452200,11.2394521484375,0.010536584071815014,0.16849835216999054,3.1164822578430176
1742324433573437200,11.249437255859375,0.0459049753844738,0.17862436175346375,2.8968701362609863
1742324433583421200,11.259421142578125,0.12440085411071777,0.03199683502316475,2.5273380279541016
1742324433593406200,11.26940625,0.25042545795440674,-0.1498008668422699,2.079435110092163
1742324433603391200,11.27939111328125,0.36774224042892456,-0.3230120837688446,1.6245265007019043
1742324433613375200,11.289375244140626,0.4360707700252533,-0.3522917330265045,1.1900901794433594
1742324433623360300,11.2993603515625,0.44428181648254395,-0.24634131789207458,0.749939501285553
1742324433633345000,11.309344970703124,0.4254815876483917,-0.09052947908639908,0.2750718295574188
1742324433643330000,11.319330078125,0.367403119802475,-0.02397148497402668,-0.21627925336360931
1742324433653314000,11.32931396484375,0.29259198904037476,-0.07425383478403091,-0.7524183392524719
1742324433663299000,11.339299072265625,0.21842719614505768,-0.2134000062942505,-1.2783061265945435
1742324433673284400,11.349284423828125,0.0906786173582077,-0.36671409010887146,-1.725819706916809
1742324433683268400,11.359268310546875,-0.09810221940279007,-0.4239552915096283,-2.0631167888641357
1742324433693253400,11.36925341796875,-0.29894042015075684,-0.39981788396835327,-2.2958736419677734
1742324433703238100,11.379238037109374,-0.4842926859855652,-0.29627472162246704,-2.4747908115386963
1742324433713223200,11.38922314453125,-0.633398711681366,-0.1999945491552353,-2.6179914474487305
1742324433723207200,11.399207275390625,-0.7366524338722229,-0.24661850929260254,-2.7085907459259033
1742324433733192200,11.409192138671875,-0.8183929920196533,-0.4451526701450348,-2.757398843765259
1742324433743177200,11.41917724609375,-0.8960326910018921,-0.7129433751106262,-2.813802719116211
1742324433753161200,11.4291611328125,-0.9828776121139526,-1.014453411102295,-2.8839714527130127
1742324433763146200,11.439146240234376,-1.0570149421691895,-1.3566176891326904,-2.96211314201355
1742324433773131000,11.449131103515626,-1.0449954271316528,-1.608412742614746,-3.051567792892456
1742324433783116000,11.459115966796874,-0.9532002210617065,-1.6369516849517822,-3.1097519397735596
1742324433793100000,11.46910009765625,-0.7720611691474915,-1.4688704013824463,-3.0944106578826904
1742324433803085000,11.4790849609375,-0.5482168793678284,-1.0485479831695557,-2.9987833499908447
1742324433813070300,11.4890703125,-0.35476794838905334,-0.46740734577178955,-2.816080093383789
1742324433823055400,11.499055419921875,-0.2043296992778778,0.0826249048113823,-2.586456060409546
1742324433833039400,11.509039306640625,-0.0939449667930603,0.44737789034843445,-2.3809921741485596
1742324433843024100,11.519024169921876,-0.07199811935424805,0.6872232556343079,-2.2514688968658447
1742324433853009200,11.529009033203126,-0.0945221483707428,0.8064454197883606,-2.1878325939178467
1742324433862993200,11.5389931640625,-0.17174369096755981,0.7844895124435425,-2.173635244369507
1742324433872978200,11.548978271484375,-0.2571018934249878,0.6376362442970276,-2.2162275314331055
1742324433882963200,11.558963134765625,-0.24162359535694122,0.4039957821369171,-2.2327840328216553
1742324433892948200,11.5689482421875,-0.08917808532714844,0.1500779241323471,-2.1969566345214844
1742324433902932200,11.57893212890625,0.12965066730976105,0.0006253199535422027,-2.150447130203247
1742324433912917200,11.588917236328125,0.2923610806465149,0.061210788786411285,-2.0465457439422607
1742324433922902000,11.598902099609376,0.353952020406723,0.26400065422058105,-1.8793951272964478
1742324433932886000,11.608885986328126,0.3237133324146271,0.5360299348831177,-1.6922413110733032
1742324433942871000,11.61887109375,0.19624701142311096,0.8254915475845337,-1.5438777208328247
1742324433952856300,11.628856201171875,0.07189815491437912,1.060078740119934,-1.4931596517562866
1742324433962841300,11.63884130859375,-0.06085270643234253,1.1979854106903076,-1.5183075666427612
1742324433972825300,11.648825439453125,-0.21793030202388763,1.2233812808990479,-1.5668290853500366
1742324433982810400,11.658810302734375,-0.33243557810783386,1.1097639799118042,-1.6479697227478027
1742324433992795100,11.668795166015625,-0.35731640458106995,0.884262204170227,-1.7234078645706177
1742324434002779100,11.678779052734376,-0.26978015899658203,0.6000989675521851,-1.781524658203125
1742324434012764200,11.68876416015625,-0.13061165809631348,0.34832578897476196,-1.7829363346099854
1742324434022749200,11.698749267578124,0.013584128580987453,0.22617246210575104,-1.716916799545288
1742324434032734200,11.708734130859375,0.12577378749847412,0.27723217010498047,-1.6044914722442627
1742324434042718200,11.71871826171875,0.19291581213474274,0.4342809021472931,-1.4608345031738281
1742324434052703200,11.728703125,0.24748431146144867,0.6195922493934631,-1.3233590126037598
1742324434062688000,11.73868798828125,0.2770099639892578,0.7915746569633484,-1.2259325981140137
1742324434072672300,11.74867236328125,0.25903695821762085,0.8643713593482971,-1.136462926864624
1742324434082657000,11.758656982421876,0.24448171257972717,0.8088590502738953,-1.048737645149231
1742324434092642300,11.768642333984374,0.22723986208438873,0.6627256870269775,-0.9697338938713074
1742324434102627300,11.77862744140625,0.2311275452375412,0.4363745450973511,-0.9003063440322876
1742324434112611300,11.788611328125,0.26637405157089233,0.15371015667915344,-0.8100817799568176
1742324434122596400,11.798596435546875,0.32513830065727234,-0.16395090520381927,-0.6767852306365967
1742324434132581000,11.8085810546875,0.40489012002944946,-0.47146931290626526,-0.4936303198337555
1742324434142566400,11.81856640625,0.4957706332206726,-0.7085526585578918,-0.25627610087394714
1742324434152550400,11.82855029296875,0.5737105011940002,-0.8461869955062866,0.012801460921764374
1742324434162535400,11.838535400390626,0.6229115724563599,-0.90981525182724,0.3003637194633484
1742324434172520400,11.8485205078125,0.6386348009109497,-0.8695398569107056,0.5836880207061768
1742324434182504400,11.85850439453125,0.6243700981140137,-0.7411574125289917,0.822245180606842
1742324434192489500,11.868489501953125,0.5595273971557617,-0.548390805721283,0.9860041737556458
1742324434202474200,11.87847412109375,0.4377964735031128,-0.34449923038482666,1.061499834060669
1742324434212459300,11.888459228515625,0.2879696488380432,-0.25129878520965576,1.0446410179138184
1742324434222443300,11.898443359375,0.12559379637241364,-0.3074702024459839,0.9530782103538513
1742324434232428500,11.908428466796876,-0.03374477103352547,-0.47488492727279663,0.8110718131065369
1742324434242413600,11.91841357421875,-0.19908607006072998,-0.7123547792434692,0.6485156416893005
1742324434252397600,11.9283974609375,-0.3761301338672638,-0.9742691516876221,0.49377870559692383
1742324434262382600,11.938382568359375,-0.5541884899139404,-1.2277847528457642,0.37115612626075745
1742324434272367400,11.948367431640625,-0.7203734517097473,-1.4487971067428589,0.3022857904434204
1742324434282352400,11.958352294921875,-0.8878000378608704,-1.6026215553283691,0.3078342378139496
1742324434292336400,11.96833642578125,-1.0574837923049927,-1.6822829246520996,0.39707738161087036
1742324434302321400,11.9783212890625,-1.2115561962127686,-1.7140849828720093,0.558497428894043
1742324434312306400,11.988306396484376,-1.3314262628555298,-1.7149972915649414,0.7581335306167603
1742324434322290400,11.99829052734375,-1.4192978143692017,-1.6808222532272339,0.9650182723999023
1742324434332275500,12.008275390625,-1.4774718284606934,-1.594826579093933,1.1471076011657715
1742324434342260500,12.018260498046875,-1.491690754890442,-1.4564207792282104,1.2957990169525146
1742324434352245200,12.028245361328125,-1.4759835004806519,-1.2781046628952026,1.421937108039856
1742324434362229200,12.038229248046875,-1.4519740343093872,-1.1054381132125854,1.5252853631973267
1742324434372214500,12.048214599609375,-1.4102734327316284,-0.9384431838989258,1.6331491470336914
1742324434382199600,12.058199462890625,-1.350099802017212,-0.751554548740387,1.7651814222335815
1742324434392183600,12.06818359375,-1.2853246927261353,-0.5750387907028198,1.9571850299835205
1742324434402168600,12.07816845703125,-1.229734182357788,-0.4548868238925934,2.2106781005859375
1742324434412153600,12.088153564453124,-1.2098392248153687,-0.33991092443466187,2.478602170944214
1742324434422138400,12.098138427734375,-1.26676607131958,-0.2840457856655121,2.7463955879211426
1742324434432122400,12.108122314453125,-1.299550175666809,-0.26934894919395447,2.985229015350342
1742324434442107400,12.118107421875,-1.2610208988189697,-0.2330026477575302,3.1533455848693848
1742324434452092400,12.128092529296875,-1.2045691013336182,-0.2554442882537842,3.258376359939575
1742324434462076400,12.138076416015625,-1.082430362701416,-0.29936644434928894,3.3038816452026367
1742324434472061400,12.1480615234375,-0.8860135078430176,-0.3333725035190582,3.2489781379699707
1742324434482046500,12.15804638671875,-0.7405143976211548,-0.3938917815685272,3.100151300430298
1742324434492031200,12.16803125,-0.7416788935661316,-0.523855447769165,2.923844337463379
1742324434502015200,12.17801513671875,-0.8931315541267395,-0.7150022387504578,2.8111205101013184
1742324434512000500,12.18800048828125,-1.132461667060852,-0.9252972602844238,2.8286664485931396
1742324434521985500,12.197985595703125,-1.3284450769424438,-0.9952774047851562,2.913975477218628
1742324434531969500,12.207969482421875,-1.4112969636917114,-0.9310275316238403,3.0074338912963867
1742324434541954600,12.21795458984375,-1.291341781616211,-0.8034261465072632,3.135209560394287
1742324434551939600,12.227939697265626,-0.9489412307739258,-0.6599867939949036,3.2868504524230957
1742324434561924400,12.23792431640625,-0.5857068300247192,-0.570286214351654,3.406419515609741
1742324434571908400,12.247908447265624,-0.28426605463027954,-0.6099258065223694,3.4722795486450195
1742324434581893400,12.257893310546875,-0.13691042363643646,-0.8290507197380066,3.4926891326904297
1742324434591878400,12.26787841796875,-0.23840542137622833,-1.1501688957214355,3.492357015609741
